ms,hall,acc_x,acc_y,acc_y,gyro_x,gyro_y,gyro_z6704,0,393,-4269,8061,-68,1368,13966756,0,392,-4268,8062,269,1368,13196796,0,400,-4262,8073,0,8,-2086524,0,390,-4271,8091,-3,5,-16436,0,422,-4256,8082,-5,-5,-16440,0,371,-4284,8064,-4,-3,-26448,0,410,-4230,8091,-3,-3,06432,0,363,-4252,8046,-4,-1,06432,0,375,-4277,8065,-4,-5,16440,0,408,-4256,8102,-2,-4,16436,0,415,-4274,8087,-4,-1,16436,0,392,-4258,8077,-4,0,06428,0,398,-4267,8097,-2,-5,-16440,0,409,-4274,8083,-2,-2,16432,0,385,-4249,8139,-3,-2,16432,0,405,-4252,8085,-1,-1,-16444,0,408,-4252,8081,-3,1,06432,0,390,-4290,8103,-4,1,16428,0,393,-4267,8105,-6,2,-46436,0,398,-4225,8079,-3,-3,16436,0,372,-4249,8023,-1,0,06428,0,394,-4241,8118,-2,0,-16432,0,398,-4259,8076,-3,-1,16444,0,406,-4257,8087,-2,-2,-16440,0,403,-4271,8085,-3,-1,06432,0,415,-4273,8088,-4,-1,-16440,0,419,-4232,8070,-6,0,06428,0,399,-4274,8098,-4,-2,-26440,0,400,-4273,8071,-4,-2,06436,0,387,-4257,8091,-3,-2,16444,0,395,-4256,8129,-2,-2,16444,0,387,-4259,8058,-4,0,-26436,0,401,-4272,8059,-3,-2,06436,0,403,-4285,8095,-3,0,26432,0,384,-4269,8118,-1,2,06428,0,392,-4263,8048,-2,-2,-16440,0,395,-4250,8085,-2,-2,-26444,0,402,-4256,8080,-2,-1,16436,0,405,-4249,8082,-5,-2,-36440,0,395,-4260,8095,-5,-2,06436,0,406,-4291,8067,-5,-2,-16448,0,382,-4256,8104,-4,-1,26436,0,387,-4291,8041,-5,0,06428,0,427,-4269,8092,-4,-2,06436,0,401,-4264,8075,-3,-2,26436,0,411,-4249,8041,-2,-1,06436,0,379,-4253,8074,-4,0,-16444,0,419,-4258,8100,-3,0,06428,0,402,-4236,8087,-6,-1,06432,0,395,-4244,8100,-3,0,-26436,0,416,-4244,8051,-4,-1,-16444,0,388,-4266,8040,-3,-2,06436,0,403,-4250,8105,-2,-1,-26440,0,399,-4256,8069,-2,0,-16444,0,424,-4282,8067,-4,0,16432,0,396,-4245,8069,-2,0,-26436,0,387,-4260,8084,-5,-3,-16440,0,389,-4251,8100,-4,-3,16436,0,411,-4233,8075,-2,-1,06436,0,405,-4275,8074,-4,0,-26436,0,382,-4245,8080,-3,-2,06436,0,388,-4275,8083,-2,1,06428,0,394,-4264,8068,-1,-1,16436,0,402,-4272,8065,-3,1,26428,0,414,-48240,8047,-5,-1,06436,0,392,-4279,8102,-3,1,16432,0,391,-4252,8098,-5,-2,16436,0,402,-4238,8093,-1,-1,-16444,0,384,-4249,8097,-3,-1,-26448,0,361,-4242,8073,-4,-1,-16440,0,396,-4258,8092,-4,-4,06432,0,410,-4254,8074,-4,2,-26440,0,409,-4259,8065,-3,-3,-16440,0,382,-4256,8074,-2,-2,06432,0,404,-4262,8099,-2,1,-26432,0,402,-4256,8088,-1,0,06428,0,373,-4250,8045,-2,1,-36436,0,395,-4272,8123,-6,-1,06436,0,392,-4248,8064,-3,-2,-16444,0,400,-4251,8105,-3,1,16428,0,420,-4242,8062,-6,2,06424,0,402,-4236,8071,0,-3,46428,0,401,-4272,8105,-4,-1,06436,0,396,-4253,8072,-2,0,36432,0,365,-4265,8047,-3,2,16428,0,407,-4252,8070,-4,-2,06436,0,383,-4272,8050,-3,2,26432,0,390,-4263,8056,-2,-2,16432,0,404,-4249,8085,-3,-1,06432,0,409,-4273,8048,-4,-2,-46444,0,405,-4257,8087,-3,-1,26432,0,396,-4297,8035,-5,1,16428,0,430,-4272,8041,0,-4,-26440,0,378,-4248,8074,-1,0,06428,0,387,-4271,8053,-3,0,-16432,0,404,-4226,8042,-3,-1,16436,0,401,-4263,8098,-7,-3,-26440,0,406,-4285,8075,-1,-2,26436,0,400,-4238,8078,-2,-1,06436,0,417,-4254,8077,-2,-1,06448,0,402,-4271,8080,-3,0,16428,0,415,-4272,8075,-4,1,16428,0,407,-4258,8076,-4,-1,06432,0,396,-4272,8057,-4,-3,16436,0,407,-4243,8109,0,-3,06428,0,406,-4273,8087,-4,0,06428,0,398,-4267,8096,-4,-5,36440,0,394,-4275,8098,-4,-1,-26440,0,430,-4248,8046,-5,-2,-26440,0,399,-4256,8059,-3,-3,-16440,0,391,-4273,8112,-1,-1,26436,0,377,-4252,8087,-3,0,16428,0,409,-4260,8097,-4,-4,-36448,0,387,-4260,8078,-2,2,26432,0,398,-4250,8061,-3,-1,26436,0,378,-4254,8076,-5,-1,26436,0,413,-4269,8067,0,0,06420,0,406,-4268,8092,-3,-4,16432,0,412,-4242,8085,-5,-3,26432,0,383,-4259,8113,-4,0,-16436,0,396,-4279,8058,-5,-2,06440,0,409,-4268,8062,-1,-2,16436,0,417,-4288,8146,-1,-2,-16444,0,391,-4257,8072,-3,-1,-16444,0,396,-4299,8098,-4,2,-16440,0,388,-4276,8071,-3,1,-16432,0,408,-4262,8069,-2,1,06436,0,400,-4250,8114,-1,-1,16440,0,400,-4263,8072,-3,-4,16432,0,395,-4260,8081,-1,0,-26432,0,388,-4246,8067,-4,-1,-36444,0,402,-4258,8057,-4,-2,-26440,0,396,-4274,8087,1,-2,06428,0,421,-4238,8067,-2,-2,56444,0,416,-4260,8098,-5,-1,26432,0,403,-4256,8056,-3,4,06424,0,377,-4251,8123,-6,-3,-16440,0,381,-4249,8110,-2,0,-16436,0,402,-4269,8082,-4,0,06428,0,379,-4237,8044,-4,-1,26436,0,424,-4250,8096,-2,-2,-26440,0,393,-4253,8096,-6,-2,16436,0,395,-4269,8040,-5,0,06428,0,413,-4240,8090,-4,0,06428,0,384,-4278,8070,-3,-2,06436,0,396,-4231,8070,-2,-2,06436,0,402,-4252,8086,-1,0,16424,0,405,-4272,8070,-3,-1,06436,0,404,-4254,8094,-4,0,16428,0,418,-4276,8083,-1,1,-16432,0,394,-4255,8076,-2,-2,-26440,0,381,-4275,8074,-2,0,16428,0,400,-4258,8080,-3,-2,06436,0,392,-4251,8068,-3,1,06428,0,378,-4258,8064,-2,0,-16436,0,386,-4268,8079,-3,-1,-36440,0,384,-4283,8106,-2,1,26428,0,386,-4267,8065,-2,-1,-16440,0,394,-4261,8056,-4,-1,16440,0,425,-4270,8100,-4,-2,06432,0,416,-4242,8083,-3,-1,26436,0,396,-4252,8076,-5,0,36428,0,399,-4252,8100,-4,-1,26432,0,398,-4234,8102,-1,-2,-16440,0,419,-4254,8103,-5,-2,-26440,0,406,-4290,8064,-5,-1,06444,0,418,-4260,8060,-3,-2,16432,0,404,-4285,8071,-2,0,26428,0,398,-4236,8039,-4,-3,16440,0,393,-4267,8075,-4,-3,26432,0,392,-4248,8110,-3,1,-26432,0,391,-4246,8076,-5,1,06432,0,402,-4265,8095,-3,0,-36436,0,395,-4243,8065,-1,-4,06432,0,392,-4220,8064,-2,-1,06432,0,414,-4256,8053,-3,-1,26436,0,401,-4283,8110,-1,-2,26436,0,381,-4248,8067,-4,0,16428,0,379,-4259,8076,-2,3,26436,0,414,-4287,8104,-1,-2,06436,0,443,-4237,8112,-4,-2,36436,0,409,-4266,8072,-2,0,16428,0,407,-4246,8110,-6,0,-16436,0,408,-4263,8096,-3,-1,-26440,0,377,-4271,8085,-3,1,-16436,0,402,-4276,8091,-4,1,06432,0,401,-4268,8090,-2,-1,36444,0,383,-4261,8081,-3,-1,26432,0,381,-4253,8105,-3,1,26428,0,383,-4225,8065,-5,-2,06432,0,393,-4239,8062,-3,-3,-16440,0,395,-4257,8063,-5,-1,-16440,0,431,-4272,8042,-6,-1,26440,0,379,-4272,8074,-3,-3,26436,0,399,-4251,8063,-2,1,06428,0,411,-4260,8071,-2,-3,06436,0,396,-4259,8088,-3,-3,26436,0,385,-4262,8085,-3,-2,26436,0,383,-4285,8109,-3,1,-16436,0,398,-4273,8066,-1,0,06436,0,405,-4292,8097,0,2,06420,0,394,-4283,8069,-4,-3,-16440,0,416,-4247,8075,-3,-2,-16440,0,406,-4247,8085,-4,-1,-16440,0,385,-4258,8098,-3,-1,-46440,0,388,-4248,8058,-4,-1,-26440,0,379,-4259,8059,-4,0,06436,0,401,-4239,8108,-4,-3,16432,0,387,-4251,8076,-4,-3,-16440,0,390,-4243,8081,-3,-1,26432,0,388,-4287,8083,-4,-2,-16448,0,405,-4264,8091,1,-1,36428,0,399,-4245,8067,-2,1,06428,0,406,-4259,8091,-4,-3,-26440,0,358,-4272,8077,-3,-3,-26444,0,370,-4246,8088,-3,-1,-16440,0,403,-4257,8104,-4,-1,-16444,0,404,-4252,8087,-4,-1,-26436,0,404,-4252,8089,-6,1,06428,0,400,-4254,8070,-5,0,16428,0,391,-4232,8054,-4,-2,-16440,0,416,-4282,8054,-3,-2,06432,0,396,-4210,8048,-3,-3,16436,0,407,-4251,8109,-4,-3,-16444,0,386,-4264,8079,-6,-3,-16448,0,365,-4240,8089,-1,-1,-26440,0,390,-4290,8090,-2,0,16428,0,387,-4272,8053,-3,0,26428,0,402,-4254,8080,-4,0,26428,0,394,-4254,8085,-4,-2,06436,0,400,-4231,8053,-4,0,06432,0,425,-4270,8066,-4,1,-16440,0,391,-4254,8076,-3,0,-16436,0,417,-4276,8103,-2,-3,06436,0,407,-4252,8085,-2,0,-16432,0,396,-4273,8073,-4,-2,-16444,0,387,-4287,8076,-2,0,-16432,0,381,-4273,8080,-2,0,16432,0,409,-4262,8089,-3,-3,-16440,0,390,-4271,8073,-5,-1,16436,0,404,-4255,8053,-5,-1,06432,0,390,-4240,8081,-4,0,06428,0,392,-4255,8122,-3,3,-16436,0,409,-4249,8064,-4,-3,06436,0,381,-4246,8095,-3,-1,36444,0,400,-4279,8078,-2,-3,16440,0,411,-4256,8045,-1,-1,16432,0,381,-4215,8041,-11,1,06472,0,386,-4276,8112,3,-2,-86444,0,500,-4283,8121,9,1,26420,0,386,-4257,8103,-15,3,126516,0,376,-4237,8088,-9,1,-66432,0,427,-4266,8046,-2,-3,-136484,0,400,-4257,8110,4,-3,-26432,0,429,-4210,8104,-3,2,226472,0,368,-4314,8027,-9,2,-16432,0,381,-4288,8107,2,-4,-156480,0,443,-4178,8103,-11,1,-46488,0,455,-4269,8073,-12,-1,76476,0,372,-4331,8095,3,2,76424,0,357,-4254,8093,2,-1,06428,0,425,-4247,8096,-4,-2,-86448,0,429,-4208,8076,-13,1,16472,0,413,-4287,8082,-9,3,46428,0,407,-4295,8051,2,-2,-26436,0,398,-4262,8087,2,-1,-36436,0,383,-4291,8065,-4,1,26428,0,418,-4239,8082,-6,-2,36444,0,422,-4237,8074,-10,-1,-76484,0,382,-4280,8061,-6,-3,16432,0,384,-4305,8087,1,0,36420,0,406,-4263,8106,5,1,-46428,0,422,-4238,8083,-1,-1,-46440,0,409,-4205,8084,-9,2,76428,0,397,-4283,8042,-7,-3,56444,0,363,-4277,8065,0,-1,36428,0,391,-4227,8066,1,1,-26428,0,377,-4234,8111,-3,-1,-56440,0,411,-4247,8075,-8,-1,26436,0,398,-4263,8095,-7,1,36428,0,388,-4282,8044,-1,0,-26436,0,424,-4256,8076,0,0,-26436,0,417,-4257,8080,-3,-2,66432,0,392,-4249,8087,-1,-1,16432,0,402,-4263,8096,-3,-1,-26440,0,398,-4247,8099,-3,-1,-26444,0,393,-4225,8079,-8,-3,-26440,0,397,-4225,8084,-2,1,-26436,0,406,-4280,8080,-2,-1,06436,0,401,-4234,8098,-3,-2,06436,0,406,-4281,8099,-1,-2,26436,0,397,-4263,8091,-1,-1,-16448,0,383,-4256,8103,-5,-1,06432,0,399,-4238,8103,-6,1,16428,0,411,-4263,8086,-5,-3,26432,0,380,-4249,8073,-3,-2,-16440,0,403,-4256,8104,1,-2,-16436,0,408,-4253,8061,-2,1,26428,0,385,-4260,8082,-4,-3,06436,0,399,-4263,8130,-3,0,16428,0,383,-4239,8090,-3,-2,-16440,0,396,-4246,8074,-3,1,06428,0,396,-4262,8058,0,-1,06432,0,395,-4264,8084,-2,-1,26436,0,428,-4265,8081,-4,1,06428,0,401,-4284,8078,-5,-2,-16448,0,411,-4230,8069,-5,-1,06440,0,389,-4267,8128,-4,-1,16436,0,378,-4263,8090,-3,-2,-16440,0,397,-4281,8068,-3,1,06428,0,386,-4256,8071,-4,0,-26436,0,391,-4257,8061,-4,-2,16432,0,395,-4259,8089,-5,-1,26444,0,400,-4254,8066,-1,-1,06432,0,365,-4242,8072,-3,0,06428,0,388,-4232,8055,-4,-1,26436,0,404,-4253,8052,-5,1,36424,0,361,-4269,8111,-5,1,-16436,0,396,-4263,8087,-2,-2,-16440,0,404,-4271,8035,-1,0,06432,0,413,-4251,8044,-5,2,26432,0,374,-4251,8081,-3,-1,16432,0,382,-4257,8079,-2,-1,06436,0,388,-4274,8067,-5,-2,16436,0,368,-4263,8092,-2,-2,16440,0,397,-4262,8055,-1,0,06428,0,399,-4239,8083,-2,0,16432,0,395,-4245,8086,-4,-2,-16448,0,383,-4235,8145,-4,-2,26432,0,390,-4260,8084,-4,-1,26436,0,417,-4261,8082,0,-3,16428,0,417,-4276,8121,-4,-1,16436,0,410,-4232,8047,-2,-4,-16444,0,370,-4245,8086,-3,-5,-16444,0,395,-4273,8076,-4,1,-16436,0,389,-4266,8071,-3,0,36428,0,393,-4257,8070,-3,1,-26436,0,389,-4267,8053,-3,-1,-16448,0,408,-4269,8064,-3,-3,16432,0,393,-4255,8085,-4,-1,16436,0,418,-4267,8102,-3,-2,06436,0,391,-4250,8065,-3,-2,06436,0,415,-4264,8076,-2,1,-16436,0,414,-4239,8072,-1,-2,06432,0,401,-4261,8072,-3,-1,06440,0,371,-4280,8058,-5,0,06428,0,387,-4265,8050,-5,-1,-16440,0,399,-4238,8069,-3,0,-26440,0,409,-4279,8063,-5,-6,36432,0,412,-4271,8085,-5,0,06428,0,399,-4233,8053,-3,0,06428,0,406,-4264,8084,-2,-1,-36440,0,397,-4245,8066,-4,0,-16436,0,402,-4271,8074,-4,0,16428,0,414,-4271,8073,-3,-2,26436,0,378,-4280,8063,-1,1,16428,0,390,-4265,8087,-2,-1,16436,0,411,-4263,8062,-3,-3,16436,0,394,-4285,8083,-4,1,06428,0,406,-4263,8091,-1,0,16428,0,367,-4284,8091,-2,0,06428,0,413,-4235,8081,0,-1,-26440,0,415,-4264,8082,-2,2,-16432,0,395,-4284,8127,-4,-1,26432,0,400,-4273,8094,-3,-1,26440,0,426,-4263,8066,-4,3,-16440,0,377,-4260,8074,0,-1,26428,0,408,-4229,8091,0,-1,-16432,0,380,-4233,8082,-3,0,26428,0,386,-4268,8064,-3,1,16428,0,426,-4271,8067,-3,-4,26436,0,406,-4258,8106,-2,1,-16436,0,415,-4271,8061,-2,-1,-16440,0,388,-4288,8057,-3,-3,26436,0,401,-4270,8092,-5,1,-46432,0,399,-4261,8094,-2,-2,-16440,0,378,-4256,8071,-3,-4,-16440,0,369,-4288,8051,-3,0,06428,0,398,-4265,8097,-4,-4,06444,0,410,-4270,8069,-3,-2,06436,0,395,-4245,8106,-4,1,16428,0,391,-4247,8084,-5,1,-16432,0,403,-4265,8073,-4,-2,-16440,0,418,-4277,8105,-2,-3,06436,0,375,-4262,8101,-3,-2,06432,0,419,-4248,8097,-5,-3,26440,0,394,-4250,8047,-7,-1,06436,0,422,-4266,8087,-3,0,26428,0,404,-4267,8096,-4,-2,-16440,0,376,-4256,8070,-2,0,-16432,0,419,-4262,8051,-3,0,06428,0,392,-4268,8086,-4,-1,-16444,0,402,-4244,8118,-3,-2,-16448,0,395,-4264,8065,-6,-5,06440,0,413,-4248,8071,-1,-1,-16440,0,412,-4250,8098,-6,0,-16432,0,411,-4268,8087,-5,-3,16440,0,379,-4255,8099,-4,1,06428,0,395,-4248,8069,-3,-1,-26444,0,395,-4254,8056,-3,-1,06440,0,415,-4249,8119,-2,-1,16436,0,378,-4276,8077,-4,-4,06436,0,396,-4264,8083,-1,0,06428,0,413,-4270,8068,-1,2,26436,0,403,-4262,8046,-2,1,06428,0,392,-4269,8037,-2,2,26428,0,417,-4273,8079,-4,0,-26436,0,383,-4274,8078,-7,0,16428,0,425,-4244,8076,-7,1,-16432,0,391,-4242,8061,-1,-3,36432,0,408,-4286,8089,-4,2,-16440,0,395,-4267,8064,0,-1,06428,0,374,-4228,8078,-3,-1,06440,0,415,-4256,8063,-2,-2,-16448,0,401,-4258,8055,-4,0,-66432,0,403,-4281,8057,-3,-3,-36440,0,404,-4284,8094,-2,-1,16432,0,393,-4270,8051,-3,0,-16436,0,399,-4248,8066,-4,1,26428,0,388,-4241,8089,-4,2,06428,0,394,-4234,8051,-4,0,-16432,0,374,-4261,8075,-3,1,06428,0,394,-4272,8080,-4,-2,06436,0,431,-4248,8060,-3,-1,-36452,0,402,-4263,8125,-6,1,-16436,0,409,-4248,8073,-2,0,16428,0,413,-4257,8079,-4,-3,06436,0,406,-4245,8031,-2,2,06424,0,418,-4249,8098,-2,-1,16432,0,378,-4259,8073,-4,-1,06436,0,410,-4260,8086,-4,-3,-26448,0,401,-4283,8073,-3,-5,16432,0,399,-4243,8081,-5,-2,06432,0,412,-4250,8074,-4,-1,-26440,0,407,-4270,8105,-3,-1,-16440,0,381,-4273,8107,-5,2,-16436,0,409,-4263,8069,-5,-1,-16440,0,375,-4257,8091,-3,1,-26444,0,416,-4267,8059,-1,-3,16432,0,408,-4248,8106,-1,0,06428,0,398,-4274,8074,-5,1,16428,0,415,-4262,8091,-5,-1,-16444,0,401,-4266,8082,-3,-2,46432,0,397,-4244,8061,0,1,06420,0,400,-4247,8043,0,1,26428,0,397,-4256,8054,-2,0,26432,0,394,-4257,8085,-1,0,26428,0,407,-4252,8087,-4,0,-46432,0,415,-4259,8075,-4,1,16432,0,398,-4276,8120,-4,2,16432,0,399,-4266,8040,-2,-1,06436,0,392,-4236,8062,-1,-4,-26448,0,396,-4264,8102,-5,-3,-16440,0,395,-4257,8080,-5,-2,-36440,0,403,-4258,8069,-7,-2,-16440,0,411,-4263,8042,-6,1,06428,0,410,-4272,8060,-3,-2,06432,0,422,-4258,8070,-3,-1,-16440,0,411,-4248,8074,-5,0,16436,0,409,-4270,8075,-5,-2,-16444,0,404,-4270,8046,-5,-1,06436,0,412,-4255,8110,2,0,06424,0,413,-4270,8088,-4,-2,06436,0,412,-4255,8088,-2,1,16428,0,400,-4242,8058,-2,-1,16432,0,418,-4242,8082,-2,0,36436,0,399,-4264,8095,-2,-1,26440,0,397,-4269,8050,-1,1,16428,0,392,-4224,8070,-4,-2,16436,0,382,-4261,8070,-4,1,16428,0,409,-4260,8076,-4,1,06428,0,404,-4260,8053,-3,0,16428,0,430,-4257,8065,-3,1,26436,0,385,-4239,8080,-2,-2,-16444,0,404,-4263,8080,-2,-1,16432,0,368,-4262,8074,-3,0,16428,0,409,-4258,8074,-2,2,16432,0,408,-4242,8073,-3,-1,-26440,0,387,-4259,8060,-4,-1,06436,0,407,-4251,8110,-3,-1,-16440,0,414,-4248,8094,-1,1,26428,0,417,-4243,8088,-3,-2,-36440,0,396,-4229,8085,-2,-1,-16440,0,381,-4273,8076,-2,-2,-16448,0,393,-4271,8075,-4,0,16428,0,407,-4251,8087,-2,-1,16432,0,383,-4287,8103,-3,-2,16440,0,373,-4284,8095,0,-1,-16432,0,387,-4253,8113,-5,-1,16436,0,416,-4259,8095,-6,0,-26436,0,416,-4249,8061,-5,2,16432,0,393,-4256,8086,-2,1,16428,0,393,-4278,8096,-4,0,26428,0,385,-4247,8063,0,-2,-16432,0,415,-4254,8101,-3,-1,16436,0,396,-4258,8095,-2,-4,16436,0,399,-4249,8113,-2,-1,16440,0,404,-4277,8088,-6,1,26428,0,393,-4260,8071,-3,0,-16432,0,402,-4235,8102,-3,0,06428,0,391,-4259,8051,-4,2,06428,0,416,-4266,8074,-2,-1,-16440,0,400,-4288,8100,-2,-1,-16440,0,409,-4250,8049,-5,-4,26436,0,407,-4259,8065,-2,-1,16436,0,391,-4258,8107,-4,-1,06436,0,391,-4237,8104,-3,-2,06436,0,413,-4254,8086,-1,-2,16432,0,396,-4280,8095,-5,1,06428,0,401,-4272,8051,-5,0,-16436,0,387,-4268,8055,-4,-2,-26448,0,415,-4270,8090,-2,0,-16440,0,428,-4261,8087,-3,-2,-26440,0,381,-4252,8074,-2,2,-16432,0,376,-4274,8117,-3,-2,16436,0,391,-4244,8118,-4,1,06428,0,385,-4254,8076,-3,0,06428,0,397,-4269,8096,-2,3,-16444,0,391,-4264,8072,-6,-5,16436,0,401,-4238,8042,-3,-1,06432,0,389,-4275,8078,-3,-3,16432,0,393,-4274,8072,-4,0,-26436,0,387,-4251,8085,-3,1,06428,0,414,-4242,8051,-5,2,06424,0,383,-4236,8083,-3,0,26436,0,390,-4254,8115,-4,-1,26440,0,411,-4248,8082,-4,-1,-16440,0,416,-4250,8046,-1,-2,06432,0,377,-4250,8089,-4,-1,06432,0,405,-4264,8071,-3,-2,16436,0,386,-4263,8072,-4,0,06428,0,372,-4265,8051,-4,-2,-26448,0,396,-4245,8102,-3,-2,-16448,0,386,-4278,8065,-3,0,16428,0,416,-4264,8077,-2,-1,26436,0,394,-4254,8082,-2,0,26428,0,389,-4255,8108,-4,-4,-26444,0,380,-4266,8099,-6,-3,-16440,0,405,-4246,8089,-3,-1,06432,0,387,-4260,8115,-3,0,06428,0,379,-4250,8075,-5,-2,16436,0,400,-4263,8078,-3,1,26428,0,374,-4269,8089,-5,1,-26436,0,385,-4256,8093,-3,-1,-16440,0,387,-4239,8088,-3,-1,06432,0,397,-4245,8092,-3,-2,-16440,0,418,-4255,8070,-2,-3,36436,0,390,-4252,8075,-4,-3,16436,0,381,-4260,8103,-3,-2,06432,0,397,-4266,8062,-3,-2,16440,0,401,-4268,8075,-4,-1,16436,0,386,-4242,8087,-4,-1,-26440,0,387,-4248,8077,-2,-2,-26440,0,420,-4264,8053,-3,1,06428,0,388,-4259,8043,-2,0,06428,0,421,-4280,8082,-3,-1,-16448,0,388,-4259,8091,-2,0,16428,0,407,-4273,8060,-3,-4,-16440,0,389,-4253,8091,-4,-3,06436,0,387,-4270,8086,-5,-3,06436,0,428,-4250,8101,-4,-1,26436,0,385,-4272,8100,-4,-1,-16440,0,386,-4260,8096,-2,-2,36436,0,419,-4266,8078,-2,2,-16440,0,393,-4265,8097,-3,-3,-16440,0,411,-4262,8081,-2,-1,06436,0,407,-4273,8080,-3,0,-16440,0,408,-4267,8072,-2,0,16428,0,386,-4264,8100,-3,-1,-26444,0,426,-4261,8053,-4,0,26432,0,399,-4265,8063,-5,0,26428,0,404,-4293,8064,-3,-2,06436,0,362,-4262,8104,0,-2,-36436,0,389,-4280,8100,-4,-2,06440,0,396,-4259,8050,-2,-4,-16440,0,380,-4265,8089,-3,-2,06436,0,403,-4296,8074,-1,-1,-26452,0,388,-4267,8065,-2,-3,06432,0,401,-4269,8076,-2,-1,06436,0,404,-4286,8129,-3,-2,06436,0,380,-4285,8074,-4,0,16428,0,391,-4254,8040,-2,0,06428,0,369,-4253,8051,-4,-3,16432,0,398,-4276,8099,-4,0,-16436,0,388,-4237,8098,-4,2,06428,0,413,-4267,8072,-3,-2,-16440,0,400,-4254,8082,-5,0,16428,0,388,-4253,8093,-3,-4,16436,0,398,-4233,8069,-4,-2,-16440,0,403,-4259,8077,-3,-4,-16440,0,387,-4285,8075,-1,1,06428,0,386,-4251,8066,-5,-2,16436,0,375,-4256,8059,-4,-3,06436,0,411,-4282,8071,-6,0,16428,0,402,-4278,8086,-3,-1,06444,0,393,-4255,8106,-5,-3,06436,0,377,-4260,8088,-3,-1,06436,0,390,-4250,8055,-3,-2,06436,0,418,-4279,8118,-4,-2,-16440,0,400,-4241,8094,-3,-2,06432,0,400,-4242,8066,-4,-2,-26444,0,400,-4265,8055,-3,-1,16436,0,389,-4254,8062,-4,1,06428,0,383,-4268,8091,-3,-1,16436,0,385,-4272,8097,-2,-2,-26448,0,398,-4256,8100,-2,1,06428,0,407,-4290,8077,-4,0,06428,0,389,-4256,8087,-5,-1,06436,0,374,-4255,8074,-3,0,-16440,0,385,-4248,8045,-1,0,06428,0,400,-4267,8063,-6,2,-16432,0,401,-4284,8097,-4,1,-16436,0,386,-4264,8036,-2,1,-16436,0,380,-4283,8127,-4,-1,-26440,0,388,-4250,8042,-3,-3,06444,0,396,-4254,8050,-3,-1,06436,0,407,-4244,8079,-5,0,26428,0,390,-4291,8088,-5,-1,-26440,0,410,-4270,8049,-3,1,06432,0,388,-4257,8084,-1,2,-26436,0,416,-4268,8071,-4,-1,26436,0,394,-4268,8079,-2,-1,-16452,0,396,-4246,8091,-3,3,16436,0,422,-4251,8095,-3,0,26428,0,399,-4284,8045,-3,-1,-16440,0,401,-4271,8070,-2,-1,-36444,0,392,-4240,8090,-3,2,-16432,0,383,-4294,8058,-2,0,16428,0,386,-4265,8090,-3,-3,16436,0,388,-4242,8060,-2,-5,16436,0,400,-4269,8081,-4,-1,06436,0,375,-4259,8097,-3,2,06428,0,399,-4248,8099,-3,-1,16432,0,401,-4269,8080,-3,2,16428,0,404,-4264,8075,-3,-4,-26440,0,379,-4257,8116,-3,1,16432,0,411,-4254,8117,-3,-2,-16440,0,385,-4278,8071,-2,-2,-16440,0,396,-4269,8075,-4,-4,-16444,0,404,-4277,8043,-3,-1,06440,0,409,-4254,8062,-4,0,-16436,0,380,-4240,8114,-2,0,16428,0,397,-4254,8104,-4,-1,-16444,0,405,-4266,8090,-4,1,06424,0,405,-4249,8059,-2,2,06428,0,393,-4245,8070,-3,0,06428,0,375,-4266,8102,-4,0,-16440,0,410,-4270,8106,-3,0,-26436,0,403,-4270,8069,-3,-3,-16440,0,383,-4244,8073,-2,0,-26436,0,405,-4283,8083,0,-1,06428,0,402,-4238,8075,-3,1,16428,0,385,-4236,8068,-2,1,-16436,0,407,-4272,8077,-3,-1,06436,0,389,-4276,8094,-4,-2,16436,0,411,-4259,8066,-4,0,-26432,0,389,-4258,8077,-2,-1,26440,0,413,-4250,8096,-4,1,16428,0,387,-4256,8068,-2,-2,06436,0,396,-4258,8042,-3,-1,16436,0,399,-4262,8055,-3,-2,-16448,0,390,-4265,8069,-5,0,-16436,0,402,-4247,8099,-5,-2,-16440,0,422,-4263,8050,-1,0,06432,0,391,-4282,8074,-5,1,16432,0,419,-4252,8050,-3,-2,-16440,0,400,-4277,8073,-6,0,-36436,0,370,-4258,8074,-5,0,-16436,0,408,-4273,8098,0,-2,16428,0,402,-4259,8081,-4,-2,06436,0,386,-4252,8081,-5,2,36428,0,422,-4242,8096,-1,-1,06432,0,382,-4247,8084,-3,-4,16432,0,393,-4254,8094,-4,-2,16444,0,349,-4258,8089,-4,0,-26432,0,404,-4243,8010,-5,-1,-16440,0,382,-4283,8080,-3,0,06428,0,400,-4268,8110,-4,-1,-16444,0,395,-4265,8070,-6,-1,-26440,0,399,-4255,8075,-3,0,06428,0,415,-4272,8007,-2,-4,-26444,0,388,-4268,8050,-3,0,-16436,0,390,-4256,8052,-3,2,-16432,0,381,-4260,8087,-2,0,-16436,0,415,-4251,8021,-4,-1,06440,0,380,-4246,8092,-4,-1,-16440,0,426,-4269,8059,-2,-2,06432,0,380,-4269,8097,-2,0,26428,0,406,-4247,8072,-5,-1,-26440,0,400,-4266,8082,-4,0,16428,0,387,-4278,8096,-5,0,-26436,0,376,-4255,8070,-2,1,-36444,0,385,-4261,8098,-3,-3,16436,0,395,-4274,8080,-3,-1,06436,0,402,-4241,8023,-5,-1,06436,0,387,-4245,8091,-4,-2,-16440,0,384,-4243,8088,-4,1,-26432,0,400,-4274,8060,-2,0,06428,0,404,-4254,8056,-4,-1,-16448,0,401,-4261,8073,-3,-1,26432,0,382,-4262,8042,-1,1,-16432,0,395,-4269,8056,-1,0,-16436,0,370,-4256,8099,-4,3,06428,0,388,-4261,8094,-7,0,06428,0,383,-4254,8087,-6,-2,-26444,0,399,-4242,8055,-3,-3,26436,0,374,-4250,8070,-3,0,-46436,0,376,-4226,8075,-5,-2,-16444,0,415,-4247,8077,-4,-1,-36440,0,390,-4260,8092,-4,2,16432,0,384,-4252,8073,-5,2,16428,0,408,-4276,8056,-4,1,06436,0,383,-4272,8051,-3,-1,26440,0,380,-4268,8054,-3,1,06428,0,395,-4272,8063,-4,-1,-16440,0,400,-4251,8074,-3,-2,-16440,0,404,-4267,8099,-2,1,-16432,0,404,-4253,8091,-2,-1,-26440,0,396,-4264,8090,-4,-1,-16444,0,402,-4262,8064,-5,-3,-16448,0,383,-4279,8050,-5,3,26428,0,400,-4239,8091,-3,0,-16436,0,381,-4247,8050,-3,-4,-26440,0,383,-4255,8074,-2,-2,06436,0,407,-4292,8040,-2,-1,26436,0,400,-4254,8061,-3,-3,-16440,0,370,-4261,8072,-8,1,-16436,0,389,-4257,8064,-3,-1,26436,0,405,-4280,8102,-2,0,-56436,0,397,-4261,8066,-3,0,06436,0,396,-4249,8095,-3,-2,26432,0,385,-4280,8072,-4,-1,16432,0,403,-4259,8060,-3,-2,-16440,0,384,-4253,8086,-2,0,-16436,0,372,-4258,8069,-4,-1,06436,0,386,-4264,8099,-5,-3,06436,0,411,-4259,8083,-3,-2,06444,0,382,-4231,8089,-4,-1,16432,0,401,-4276,8102,-2,0,-26436,0,398,-4279,8068,-3,-3,06440,0,392,-4278,8097,-2,2,-26432,0,402,-4225,8111,-3,-3,26432,0,404,-4249,8063,-5,-1,06440,0,403,-4238,8067,-2,-1,06432,0,396,-4280,8094,-4,-1,-36440,0,412,-4269,8088,-3,-4,16432,0,400,-4286,8043,-2,-2,06432,0,396,-4248,8076,-3,0,26428,0,414,-4253,8061,-5,-1,26432,0,373,-4284,8060,-3,-1,-26444,0,399,-4240,8097,-3,-3,26440,0,388,-4259,8086,-5,1,06428,0,395,-4284,8043,-4,0,06428,0,430,-4259,8084,-3,-2,-16440,0,411,-4257,8091,-3,-4,06436,0,397,-4239,8098,-4,-3,16436,0,401,-4278,8077,-4,1,-16444,0,385,-4239,8059,-5,-3,-16440,0,381,-4274,8113,-2,-2,-16440,0,371,-4256,8108,-6,1,06428,0,404,-4263,8080,-4,-1,-26444,0,382,-4261,8063,-3,1,16428,0,383,-4256,8089,-2,-2,06436,0,387,-4271,8090,-3,-1,-26448,0,398,-4261,8066,-4,-1,-16440,0,387,-4259,8071,-4,-1,26432,0,393,-4257,8083,-4,2,06428,0,390,-4259,8107,-3,-3,-16444,0,405,-4272,8076,0,1,-16428,0,373,-4250,8094,-4,0,16428,0,405,-4255,8052,0,0,-16436,0,392,-4233,8074,-2,-2,-16440,0,379,-4267,8083,-3,0,16428,0,418,-4257,8094,-4,0,-26432,0,372,-4260,8053,0,-3,26428,0,397,-4257,8101,-5,-2,06432,0,362,-4245,8078,-3,-1,-16440,0,391,-4266,8093,-5,-2,-36440,0,382,-4254,8056,-5,0,06428,0,408,-4266,8093,-2,-3,-26440,0,396,-4260,8081,-3,0,16432,0,379,-4248,8067,-4,0,16424,0,406,-4251,8065,-2,-2,26432,0,388,-4270,8051,-3,1,26428,0,403,-4275,8124,0,1,-16436,0,388,-4246,8090,-1,-3,16436,0,414,-4256,8074,-3,0,06428,0,382,-4282,8059,-2,-1,16436,0,374,-4260,8062,-1,1,16428,0,372,-4257,8067,-2,-1,-16440,0,404,-4231,8120,-4,-1,16432,0,412,-4285,8096,-2,-1,-16440,0,380,-4257,8103,-3,-2,-16440,0,411,-4252,8070,-4,0,-16436,0,382,-4277,8079,-3,-2,16436,0,398,-4260,8075,-4,1,06432,0,396,-4250,8068,-1,0,-16436,0,394,-4231,8095,-2,0,16428,0,408,-4262,8063,-2,-2,06436,0,379,-4269,8053,-3,-2,16436,0,406,-4257,8089,-3,-1,-16440,0,393,-4258,8082,-3,-1,-26444,0,393,-4268,8118,-6,0,-26436,0,404,-4250,8069,-4,-2,-16440,0,391,-4256,8087,-4,-3,-16440,0,422,-4270,8090,-2,0,16428,0,396,-4263,8044,-3,-2,26436,0,402,-4249,8079,-5,0,16428,0,395,-4257,8078,-3,0,16436,0,386,-4252,8092,-3,-1,26432,0,423,-4263,8085,-2,-1,-36440,0,385,-4241,8091,-5,-2,06432,0,399,-4243,8082,-2,-1,16440,0,387,-4245,8070,-5,1,-16432,0,421,-4243,8073,-1,-1,-16440,0,389,-4257,8097,-3,2,-16444,0,407,-4247,8087,-3,1,-16432,0,397,-4262,8066,-4,-2,06436,0,411,-4260,8092,-4,-1,-16440,0,397,-4267,8091,-3,1,26432,0,389,-4245,8051,-3,-1,16436,0,408,-4256,8086,-1,-3,-16440,0,420,-4266,8073,-3,-1,26444,0,388,-4241,8065,-2,0,26432,0,421,-4255,8061,-3,-2,-26440,0,418,-4268,8069,-2,0,-16436,0,390,-4284,8101,-4,1,16428,0,399,-4255,8080,-4,-1,16436,0,411,-4247,8095,-6,0,-26436,0,396,-4261,8085,-1,-3,26440,0,403,-4267,8092,-3,-1,06436,0,406,-4253,8089,-3,-1,16436,0,392,-4274,8082,-3,-1,16440,0,400,-4267,8028,-2,0,-16440,0,389,-4240,8034,-5,1,16428,0,378,-4248,8046,-3,0,26428,0,404,-4251,8087,0,0,06428,0,393,-4276,8097,-3,-1,16432,0,394,-4271,8068,-2,3,06428,0,394,-4283,8089,-3,-1,36432,0,399,-4254,8062,-5,-1,16436,0,405,-4278,8103,-2,-1,-36440,0,412,-4266,8083,-4,-3,06432,0,405,-4290,8073,-8,-1,-16440,0,417,-4228,8082,-3,2,-16436,0,425,-4297,8075,-3,1,16428,0,396,-4259,8067,-2,-3,06436,0,407,-4268,8072,-4,1,06436,0,413,-4282,8097,-3,-2,16436,0,385,-4257,8059,-2,-1,-16444,0,397,-4248,8060,-4,2,-16444,0,426,-4259,8046,-3,-1,-26440,0,394,-4242,8107,-3,-2,16436,0,385,-4246,8095,-4,0,16436,0,391,-4250,8099,-4,-1,06436,0,416,-4284,8074,-5,-1,-16440,0,395,-4263,8053,-3,-2,16436,0,396,-4263,8082,-4,-1,16436,0,393,-4268,8054,-2,-3,16436,0,373,-4259,8115,-6,-2,06436,0,404,-4244,8112,-5,1,16436,0,409,-4257,8077,-3,0,16432,0,381,-4263,8058,-4,-2,26436,0,414,-4233,8102,-2,2,-16436,0,387,-4288,8097,-4,-2,-16444,0,421,-4250,8086,-2,-1,26432,0,398,-4257,8080,-3,-2,06436,0,414,-4258,8078,-3,0,06432,0,410,-4244,8016,-2,0,06428,0,393,-4294,8076,-4,-2,-16440,0,391,-4240,8062,-4,0,06428,0,416,-4262,8099,-6,1,-16436,0,399,-4265,8062,-3,-4,06436,0,409,-4265,8075,-3,-2,06432,0,389,-4250,8071,-4,-3,06440,0,370,-4243,8110,-2,2,16436,0,396,-4269,8076,-3,0,06428,0,406,-4274,8126,-3,-2,16432,0,411,-4265,8090,-4,-2,26432,0,376,-4255,8088,-2,0,-26432,0,404,-4260,8071,-4,1,06428,0,385,-4252,8075,-3,0,06432,0,391,-4275,8089,0,0,-16428,0,385,-4262,8082,-3,0,16428,0,389,-4261,8045,-1,0,16428,0,408,-4265,8110,-4,1,16428,0,398,-4273,8072,-3,-4,16436,0,404,-4268,8119,-1,1,06428,0,385,-4247,8078,-5,-1,-26444,0,417,-4266,8071,-2,0,-26436,0,394,-4265,8078,-2,0,-26436,0,392,-4227,8094,-4,-2,06436,0,395,-4273,8070,-5,-2,-26444,0,411,-4248,8091,-5,-1,16436,0,411,-4259,8069,-5,1,-16436,0,376,-4252,8068,-6,-3,-16448,0,396,-4239,8116,-2,0,16428,0,402,-4251,8078,-1,-4,16432,0,376,-4241,8077,0,1,-26428,0,411,-4240,8061,-2,0,-16436,0,394,-4240,8082,-3,-1,16436,0,400,-4243,8057,-4,-3,16436,0,388,-4250,8091,-4,-1,26436,0,360,-4247,8087,-1,-1,06436,0,417,-4242,8052,-4,0,26428,0,398,-4257,8108,-1,-3,-26440,0,409,-4256,8115,-3,1,-26432,0,406,-4258,8063,-3,-1,26432,0,411,-4254,8080,-1,1,-26432,0,388,-4267,8062,-3,-1,-46444,0,386,-4271,8085,-3,-3,-16440,0,398,-4254,8103,-5,-3,-16440,0,399,-4271,8066,-5,-2,26436,0,402,-4243,8089,-5,-2,-36448,0,418,-4260,8094,-2,0,06428,0,404,-4289,8087,-4,-3,-16440,0,404,-4253,8060,-1,-2,06440,0,383,-4261,8083,-5,-1,06436,0,388,-4283,8106,-5,1,-26436,0,387,-4260,8072,-3,-1,26444,0,357,-4251,8073,-3,-1,16440,0,419,-4263,8086,-4,-8,16436,0,382,-4237,8090,-5,-3,-36440,0,408,-4260,8059,-7,-3,26432,0,385,-4248,8083,-2,-2,06436,0,428,-4260,8081,-6,-4,-16440,0,378,-4257,8097,-5,0,-16440,0,382,-4269,8069,-4,0,06424,0,439,-4281,8066,-3,-1,-26440,0,395,-4294,8079,-3,-4,-26440,0,398,-4277,8105,-3,0,06432,0,417,-4250,8092,-4,1,36428,0,420,-4258,8087,-3,-2,26436,0,379,-4265,8090,-5,-1,16444,0,385,-4238,8089,-1,0,-16440,0,386,-4274,8059,-2,0,06428,0,375,-4254,8096,-2,-2,06436,0,412,-4276,8055,-5,0,06428,0,442,-4224,8076,-3,0,16428,0,395,-4285,8096,-3,-2,-16440,0,388,-4271,8073,-3,-1,06444,0,404,-4249,8085,-3,-1,-26440,0,402,-4276,8078,-2,-2,06436,0,378,-4263,8067,-5,1,06428,0,404,-4278,8052,-2,-1,16432,0,398,-4253,8106,-5,-2,06436,0,383,-4246,8062,-2,-1,-16440,0,386,-4273,8058,-2,3,06432,0,370,-4259,8017,-3,0,16428,0,396,-4258,8028,-6,-4,-16440,0,399,-4261,8082,-2,0,26428,0,402,-4278,8078,-3,-1,-26448,0,408,-4261,8078,-4,1,-16436,0,405,-4256,8048,-3,0,06428,0,383,-4266,8082,0,-1,-16436,0,410,-4252,8055,-3,1,06428,0,394,-4244,8092,-4,-3,-16440,0,392,-4241,8073,-4,-1,-26448,0,390,-4263,8078,-4,-4,26432,0,391,-4280,8068,-5,-2,26436,0,393,-4267,8086,-3,1,06428,0,396,-4256,8053,-4,0,-26432,0,387,-4273,8058,-5,-1,06436,0,397,-4256,8041,-2,-1,36436,0,383,-4257,8114,-4,1,06436,0,382,-4272,8081,-5,-4,06432,0,407,-4243,8056,-4,-3,-16440,0,402,-4288,8097,-3,-1,26432,0,387,-4254,8080,-3,-2,06432,0,405,-4243,8073,-3,-1,06436,0,397,-4267,8100,-3,-2,06436,0,399,-4255,8060,-4,1,-16440,0,379,-4258,8088,-3,-2,16440,0,385,-4253,8065,-3,0,16428,0,387,-4250,8097,-3,-2,06432,0,366,-4275,8083,-4,-1,-16440,0,401,-4263,8071,-3,-3,06436,0,375,-4245,8106,-5,-3,-36444,0,387,-4276,8070,-3,-1,06444,0,408,-4263,8101,-4,1,-16436,0,413,-4240,8105,-2,-3,06436,0,383,-4268,8055,-4,0,16428,0,414,-4282,8055,-3,-1,06436,0,370,-4264,8078,-3,-2,26432,0,409,-4257,8077,-4,-2,06436,0,373,-4269,8064,-3,0,-16444,0,386,-4259,8067,-2,1,16436,0,389,-4276,8077,0,-2,-26436,0,413,-4269,8036,-2,1,16428,0,408,-4266,8108,-4,-3,16432,0,358,-4236,8080,-4,0,16428,0,385,-4252,8098,-1,-2,06436,0,373,-4262,8089,-4,0,06432,0,380,-4268,8109,-2,0,16436,0,398,-4260,8082,-2,-2,06432,0,395,-4268,8078,-2,1,06428,0,362,-4270,8097,-4,-2,06432,0,379,-4263,8093,-3,-1,-16440,0,406,-4260,8045,-1,3,06428,0,401,-4249,8095,-5,-3,-16448,0,405,-4260,8040,-4,-2,-16440,0,389,-4260,8076,-4,-2,26436,0,406,-4257,8090,-4,-1,06436,0,415,-4256,8111,-3,0,16436,0,413,-4260,8100,-3,0,16428,0,408,-4255,8079,-3,1,16428,0,402,-4264,8085,-4,-1,06436,0,406,-4266,8092,-3,-1,06436,0,409,-4266,8067,-5,1,16428,0,389,-4247,8063,-5,0,16428,0,398,-4245,8057,-2,-2,26432,0,394,-4257,8121,-5,-3,-26440,0,383,-4255,8083,-2,-2,06432,0,382,-4288,8100,-3,-2,16436,0,398,-4286,8064,-2,-2,06436,0,416,-4268,8090,-2,-2,06436,0,380,-4249,8109,-4,-2,-16444,0,391,-4254,8110,-4,0,16436,0,390,-4258,8054,-2,-3,16432,0,410,-4246,8098,-4,-1,-16440,0,380,-4267,8063,-4,0,-16436,0,418,-4269,8077,-2,-2,16432,0,412,-4258,8075,-4,2,26428,0,375,-4253,8060,-2,1,16428,0,387,-4247,8073,-4,0,06432,0,398,-4264,8076,-3,2,06428,0,380,-4273,8091,-3,-3,-26444,0,407,-4247,8102,-3,0,16428,0,393,-4273,8064,-3,-2,-26440,0,396,-4245,8087,-4,0,-16436,0,385,-4224,8051,-1,-1,-26448,0,383,-4259,8057,-4,-1,16444,0,399,-4250,8063,-5,0,-16432,0,412,-4268,8070,-2,1,-16436,0,395,-4263,8068,-2,-1,06436,0,380,-4255,8098,-4,-2,16436,0,382,-4265,8065,-3,-1,06436,0,372,-4248,8033,-6,-2,-26444,0,385,-4270,8060,0,0,16424,0,372,-4277,8079,-3,-1,16436,0,393,-4265,8088,-4,1,-16436,0,413,-4268,8040,-3,0,-16444,0,429,-4269,8110,-2,1,06428,0,390,-4249,8090,-4,1,16428,0,393,-4254,8090,-4,-2,16440,0,403,-4271,8075,-2,-3,16440,0,399,-4242,8083,-2,1,06428,0,402,-4268,8032,-3,-1,06436,0,382,-4267,8085,-2,0,06432,0,396,-4248,8078,-5,-2,-26440,0,412,-4243,8094,-4,0,06424,0,398,-4248,8105,-3,-1,16444,0,403,-4254,8066,-5,1,-26440,0,378,-4272,8079,-2,0,06428,0,388,-4271,8097,-2,1,-26436,0,405,-4234,8078,-8,-1,16436,0,389,-4244,8097,-4,-1,06436,0,380,-4265,8087,-3,-1,16436,0,390,-4265,8068,-2,-3,06436,0,402,-4281,8047,-3,1,-16436,0,385,-4291,8079,-1,-1,-16444,0,411,-4257,8086,-4,-1,-16440,0,394,-4274,8082,-4,2,16436,0,370,-4274,8098,-4,1,06428,0,412,-4258,8065,-3,-1,06432,0,379,-4269,8067,-4,-4,-36440,0,428,-4287,8047,-2,-1,-16440,0,374,-4253,8055,-4,-2,-26440,0,387,-4265,8053,-1,-2,06436,0,381,-4278,8057,-4,-2,06440,0,386,-4260,8099,-2,-1,-16440,0,406,-4250,8078,-5,-1,-16440,0,365,-4265,8097,-4,-1,06436,0,410,-4266,8055,-3,0,-16436,0,408,-4239,8031,-3,-1,06436,0,397,-4254,8048,-3,-1,26444,0,407,-4247,8052,-2,-2,16440,0,416,-4259,8071,-3,-1,-16440,0,398,-4263,8099,-4,-2,-36440,0,390,-4257,8040,-5,-1,-16448,0,416,-4247,8071,-4,0,16428,0,382,-4236,8074,-1,0,-16432,0,396,-4259,8061,-3,-1,-16448,0,397,-4255,8094,-5,-3,-16440,0,421,-4247,8084,-6,-4,26432,0,410,-4261,8061,-5,1,06428,0,408,-4266,8064,-2,0,16428,0,385,-4251,8102,-3,-2,16432,0,423,-4253,8090,-3,-2,06432,0,384,-4230,8096,-1,1,16436,0,388,-4268,8052,-4,-3,26432,0,397,-4255,8097,-2,-3,-16440,0,404,-4285,8083,-1,1,06428,0,390,-4264,8044,-2,-1,36436,0,398,-4251,8080,-6,0,06428,0,396,-4283,8067,-2,-2,06432,0,411,-4282,8056,-4,-1,06436,0,413,-4252,8079,-4,0,16428,0,386,-4280,8058,-4,0,16428,0,381,-4258,8078,-3,0,16428,0,409,-4276,8016,-5,-1,16432,0,414,-4245,8087,-2,1,06428,0,389,-4249,8096,-6,2,-16432,0,393,-4261,8099,-3,-1,16444,0,400,-4270,8051,-5,-1,-36440,0,401,-4242,8103,-4,-1,26436,0,414,-4241,8071,-2,-1,16436,0,382,-4266,8103,-4,-6,-16444,0,400,-4280,8078,-5,-1,-26444,0,385,-4246,8069,-4,2,-16436,0,415,-4253,8092,-4,-1,16436,0,384,-4225,8076,-3,-1,06436,0,402,-4246,8069,-4,-2,06436,0,403,-4285,8085,-3,-1,-46448,0,418,-4255,8091,-2,-3,26436,0,401,-4267,8059,-5,-1,-26440,0,412,-4238,8069,-6,-2,06436,0,402,-4265,8121,-4,-2,-26440,0,394,-4249,8047,-4,-2,06436,0,396,-4266,8096,-5,0,26428,0,396,-4257,8079,-4,0,16436,0,409,-4268,8122,-4,-1,16440,0,407,-4279,8049,-3,-1,16436,0,401,-4239,8082,-3,-2,16436,0,390,-4235,8109,-2,0,26428,0,387,-4243,8085,-3,0,-26436,0,400,-4243,8069,-4,0,16428,0,409,-4231,8085,-5,1,16432,0,380,-4260,8123,-4,1,-16436,0,408,-4279,8070,0,2,06424,0,391,-4266,8073,-4,-2,06432,0,414,-4255,8053,-3,-2,16440,0,401,-4244,8044,-2,-1,-16440,0,414,-4245,8080,-3,-1,26432,0,393,-4247,8022,-2,-3,16444,0,413,-4243,8093,-2,-2,-36444,0,387,-4257,8060,-1,-1,06436,0,414,-4260,8090,-5,0,16428,0,396,-4275,8065,-3,1,-16436,0,380,-4274,8067,-3,-2,26432,0,397,-4281,8085,-5,-1,06436,0,409,-4249,8088,-2,0,16436,0,407,-4267,8092,-1,-1,16440,0,374,-4263,8070,-5,1,-16432,0,384,-4248,8089,-6,-2,16436,0,405,-4270,8062,0,1,06420,0,419,-4260,8066,-3,0,-26432,0,378,-4277,8087,-4,0,-16436,0,420,-4258,8083,-1,-1,06444,0,389,-4281,8096,-2,-1,-26440,0,404,-4262,8095,-3,0,06428,0,381,-4257,8117,-4,-2,06436,0,405,-4274,8081,-3,-2,16436,0,411,-4282,8063,-6,-1,26436,0,388,-4233,8100,-3,-1,06436,0,387,-4254,8073,-4,1,36428,0,394,-4279,8080,-3,0,16428,0,399,-4282,8056,-6,-2,-36444,0,417,-4236,8088,-1,-1,-26440,0,405,-4243,8068,-5,-2,-16444,0,391,-4258,8086,-4,0,16428,0,383,-4276,8072,-2,-1,-16440,0,391,-4259,8058,-3,-3,-26448,0,368,-4263,8092,-1,0,16424,0,392,-4270,8052,-5,-4,-26440,0,430,-4271,8114,-2,1,16436,0,387,-4253,8075,-2,-1,06432,0,407,-4280,8068,-3,0,06428,0,405,-4251,8093,-2,1,-26432,0,412,-4271,8130,-2,-2,-36440,0,381,-4264,8085,-2,0,-36432,0,406,-4241,8087,-3,1,06428,0,403,-4278,8075,-2,-1,16440,0,363,-4247,8067,-4,2,06428,0,428,-4283,8064,-4,-3,-26440,0,398,-4242,8048,-4,-3,-16444,0,408,-4258,8128,-3,4,-16440,0,429,-4253,8098,-5,-6,26432,0,410,-4252,8078,-2,-2,16436,0,405,-4241,8055,-3,1,16436,0,393,-4269,8061,-3,-2,36436,0,386,-4238,8071,-2,1,-26436,0,370,-4261,8064,-1,-1,06432,0,386,-4264,8055,-3,0,26432,0,395,-4254,8128,-4,-1,06436,0,388,-4266,8045,-3,-3,06432,0,404,-4262,8087,-4,-1,06436,0,410,-4264,8076,-4,0,06428,0,404,-4250,8065,-2,0,06428,0,400,-4249,8065,-2,-1,26436,0,381,-4241,8114,-3,0,16428,0,409,-4238,8070,-3,0,16428,0,387,-4258,8087,-6,3,-36436,0,374,-4257,8078,-2,0,16436,0,414,-4270,8051,-4,-2,06436,0,437,-4253,8067,-3,-1,16436,0,403,-4252,8063,-2,1,26428,0,404,-4249,8105,-4,-1,06432,0,400,-4274,8091,-3,0,16428,0,394,-4261,8078,-5,-3,-16440,0,392,-4253,8075,-5,1,-26444,0,407,-4272,8087,-3,-3,06432,0,391,-4273,8060,-4,0,16432,0,385,-4258,8070,-3,0,06428,0,422,-4294,8055,-6,-1,16432,0,409,-4281,8103,-3,0,06428,0,413,-4247,8060,-3,-1,-16440,0,372,-4257,8067,-4,-1,16436,0,426,-4268,8090,-5,-1,16436,0,415,-4247,8097,-2,-1,-16440,0,399,-4251,8063,-4,-2,16432,0,402,-4265,8073,-5,-3,-26440,0,419,-4244,8085,-2,1,26428,0,405,-4252,8091,-2,-2,-16440,0,374,-4263,8060,-3,-3,16444,0,407,-4262,8108,-4,0,06432,0,408,-4245,8108,-4,-1,26436,0,415,-4282,8086,-2,0,06428,0,417,-4287,8048,-3,2,26432,0,389,-4265,8094,-3,0,06428,0,384,-4252,8071,-4,1,06428,0,396,-4286,8077,-6,-1,-16452,0,389,-4248,8082,-3,-3,16432,0,394,-4257,8058,-4,2,06428,0,422,-4267,8119,-5,-2,06436,0,423,-4277,8085,-5,2,06428,0,386,-4267,8036,-5,1,06428,0,400,-4260,8075,-5,0,-16432,0,398,-4260,8127,-3,0,06436,0,396,-4242,8092,-3,1,06432,0,405,-4272,8082,-2,1,06428,0,410,-4281,8087,-2,1,06428,0,402,-4242,8057,-1,-3,06440,0,393,-4267,8060,-5,1,-16436,0,398,-4267,8071,-5,-5,-36444,0,401,-4256,8063,0,-3,16432,0,417,-4263,8057,-5,-1,-16440,0,372,-4266,8074,-2,1,06428,0,405,-4263,8069,-2,-1,-16440,0,403,-4252,8090,-3,-2,-16452,0,435,-4263,8089,-2,-2,16436,0,402,-4268,8082,-2,-2,-16440,0,393,-4255,8070,-5,0,-16440,0,401,-4256,8047,-3,-2,26432,0,393,-4263,8090,-3,-5,06432,0,400,-4254,8090,-3,-1,-16444,0,402,-4270,8095,-4,-1,-16448,0,379,-4256,8071,-3,-1,-16440,0,396,-4248,8051,-5,-1,16436,0,372,-4264,8098,-2,0,-16436,0,377,-4238,8051,-4,-4,26436,0,401,-4252,8057,-5,-1,-26440,0,404,-4268,8063,-4,-1,-16444,0,393,-4263,8085,-4,0,16428,0,393,-4263,8052,-3,-1,16432,0,384,-4253,8073,-5,-2,06436,0,398,-4247,8083,-3,-2,16444,0,389,-4251,8097,-3,0,06428,0,377,-4245,8069,-4,-3,-26440,0,376,-4243,8088,-3,1,26436,0,389,-4258,8062,-3,0,06432,0,395,-4272,8089,-1,-1,26436,0,394,-4252,8071,-5,-1,-16444,0,396,-4260,8057,-2,-3,36440,0,378,-4240,8064,-4,0,-16432,0,367,-4270,8058,-2,-3,-26440,0,399,-4262,8094,-4,-1,06440,0,394,-4257,8070,-4,-2,26436,0,412,-4257,8107,-3,-1,-16444,0,404,-4241,8075,-4,-1,06436,0,402,-4232,8086,-4,0,16432,0,397,-4253,8067,-3,0,06428,0,404,-4242,8063,-3,-2,26432,0,396,-4256,8046,-4,-1,-36440,0,401,-4281,8065,-3,-1,-16440,0,408,-4259,8100,-4,-3,-16440,0,371,-4254,8049,-3,-1,06436,0,397,-4236,8079,-3,0,-36436,0,395,-4244,8088,-2,-1,06436,0,383,-4264,8072,-2,-1,06436,0,400,-4258,8095,-2,1,46428,0,398,-4257,8047,-2,-2,-16440,0,396,-4245,8091,-3,-3,16436,0,395,-4272,8056,-4,1,06436,0,377,-4244,8055,-5,-1,26440,0,374,-4254,8067,-5,-1,-16440,0,391,-4263,8045,-2,-5,06432,0,381,-4268,8078,-4,-1,16436,0,413,-4276,8100,-4,-2,36436,0,391,-4274,8056,-4,2,16428,0,420,-4291,8094,-3,-2,-16444,0,396,-4277,8085,-4,-3,-16448,0,416,-4267,8044,-4,-3,-16440,0,411,-4255,8071,-3,1,16428,0,386,-4241,8066,-3,-3,-26444,0,403,-4243,8037,-4,-1,-46440,0,390,-4257,8077,-5,-1,-16440,0,417,-4272,8099,-2,-2,-16440,0,399,-4271,8064,-4,1,06428,0,382,-4276,8072,-4,-2,06436,0,428,-4263,8075,-5,1,06428,0,395,-4264,8113,-3,-1,-16440,0,390,-4259,8096,-2,-1,-16440,0,394,-4250,8097,-2,1,-16432,0,385,-4239,8078,-4,1,16428,0,400,-4250,8074,-2,0,-16436,0,376,-4258,8079,-4,0,06428,0,388,-4263,8084,-3,2,06428,0,389,-4266,8064,-3,-3,36432,0,394,-4266,8091,-2,-2,-16440,0,401,-4263,8071,-5,1,-26432,0,382,-4236,8103,-3,-4,-16440,0,379,-4254,8078,-2,0,16428,0,386,-4250,8083,-4,-3,16432,0,394,-4259,8092,-4,0,06428,0,408,-4260,8092,-3,-2,-16448,0,387,-4292,8088,-3,0,-16436,0,411,-4255,8064,-3,-2,-26444,0,409,-4245,8073,-6,-1,-36444,0,404,-4269,8068,-3,-2,06432,0,399,-4248,8064,-4,1,16428,0,396,-4259,8090,-2,0,16428,0,423,-4258,8063,-5,-1,-16444,0,384,-4245,8092,-2,0,26428,0,399,-4256,8078,-2,-1,-26444,0,433,-4254,8075,-2,0,06428,0,404,-4277,8081,-2,1,06428,0,422,-4263,8070,-2,1,06428,0,395,-4236,8064,-2,0,06436,0,409,-4278,8055,-4,-1,16436,0,401,-4254,8074,-6,-2,26436,0,395,-4245,8100,-4,0,06428,0,380,-4249,8097,-4,0,16428,0,391,-4279,8066,-3,-2,-16440,0,399,-4269,8064,-4,-3,06432,0,398,-4260,8079,-4,-2,-16444,0,396,-4257,8073,-4,-1,-16448,0,416,-4286,8081,-3,-1,06436,0,404,-4253,8104,-4,-2,-26440,0,400,-4250,8076,-2,-2,16432,0,415,-4274,8059,-4,0,-16436,0,417,-4265,8121,-4,-1,06436,0,389,-4249,8050,-3,-4,16444,0,396,-4253,8081,-3,-1,06444,0,401,-4238,8060,-2,-2,06436,0,419,-4265,8089,-4,-2,16436,0,379,-4247,8069,-3,-1,-16440,0,386,-4257,8076,-4,0,-16432,0,409,-4256,8062,-4,-2,06436,0,399,-4269,8070,-5,-2,26440,0,395,-4254,8101,-2,-1,06432,0,402,-4282,8077,-3,-1,-26440,0,398,-4269,8063,-1,-2,06432,0,389,-4255,8090,-3,0,06428,0,410,-4265,8117,-6,-3,06436,0,395,-4252,8085,-4,0,06428,0,373,-4259,8096,-4,0,06432,0,412,-4264,8074,-5,0,16428,0,418,-4266,8091,-2,-1,-16440,0,412,-4268,8094,-3,-2,06432,0,396,-4274,8055,-3,0,-26444,0,400,-4265,8086,-2,1,26424,0,383,-4254,8064,-5,-1,06432,0,362,-4250,8082,0,0,06424,0,381,-4259,8076,-2,-2,06436,0,415,-4277,8051,-4,-2,06436,0,388,-4250,8063,-3,-2,16432,0,414,-4239,8067,-3,0,16428,0,375,-4271,8047,-4,1,06428,0,392,-4266,8087,-2,-1,-16440,0,383,-4239,8061,-4,1,16432,0,387,-4261,8070,-2,-1,06432,0,397,-4259,8080,-1,0,06428,0,417,-4263,8083,-1,1,06428,0,400,-4257,8078,-3,2,26428,0,351,-4240,8080,-3,-1,-16440,0,420,-4254,8067,-1,1,06428,0,395,-4250,8048,-2,-4,16444,0,390,-4241,8065,-6,-2,16432,0,410,-4241,8055,-5,-2,06432,0,382,-4276,8072,-5,-2,16436,0,416,-4271,8082,-4,0,26428,0,413,-4268,8063,-1,0,06428,0,412,-4255,8073,-6,-5,-16440,0,416,-4264,8093,-3,0,-26432,0,385,-4279,8075,-3,0,06428,0,408,-4296,8072,-4,2,16428,0,387,-4277,8061,-4,0,06428,0,400,-4287,8083,-5,-3,-16444,0,391,-4252,8080,-3,-3,06436,0,400,-4263,8089,-4,0,06428,0,370,-4250,8096,-3,-2,36436,0,390,-4260,8060,-4,0,-36436,0,412,-4237,8099,-2,-1,06432,0,387,-4266,8067,-6,-3,-16440,0,382,-4257,8098,-4,1,-16440,0,388,-4261,8071,-2,2,-16432,0,421,-4260,8114,-4,-1,-16440,0,402,-4255,8039,-4,0,26436,0,397,-4283,8085,-3,-1,36432,0,407,-4262,8064,-3,-2,06436,0,375,-4258,8088,-3,-1,-26448,0,393,-4248,8059,-4,0,16428,0,413,-4272,8049,-4,1,-26432,0,402,-4236,8100,-4,0,-16436,0,393,-4252,8047,-4,0,-16436,0,397,-4276,8114,-3,-2,06436,0,398,-4276,8051,-4,-2,-16444,0,399,-4258,8081,-5,-1,06444,0,407,-4269,8038,-1,-1,-26440,0,395,-4263,8091,-4,-2,-16444,0,414,-4269,8089,-4,1,-16436,0,411,-4281,8082,-2,-1,-16440,0,393,-4242,8092,-2,0,06428,0,413,-4274,8093,-4,-2,16436,0,378,-4241,8058,-2,-3,06440,0,396,-4276,8079,-3,0,-16440,0,385,-4261,8057,-2,1,06428,0,405,-4254,8087,-5,-1,-26440,0,367,-4256,8083,-3,-1,-26440,0,379,-4240,8087,-4,-2,06436,0,388,-4264,8086,-3,-1,06436,0,409,-4281,8085,-2,2,16432,0,395,-4258,8054,-2,-3,06436,0,387,-4264,8079,-2,-1,-26440,0,415,-4246,8084,-4,-2,36432,0,390,-4253,8050,-3,1,26432,0,397,-4276,8040,-3,-2,16436,0,405,-4254,8122,-3,0,-16436,0,396,-4254,8071,-3,-3,26440,0,407,-4233,8080,-4,0,06428,0,397,-4254,8065,-2,-2,16432,0,391,-4258,8049,-3,0,-16432,0,428,-4269,8076,-3,1,06428,0,418,-4284,8109,-2,0,-16436,0,393,-4286,8079,-4,0,06432,0,405,-4255,8069,-4,-2,16432,0,397,-4260,8117,-4,2,16428,0,416,-4235,8065,-4,-1,06436,0,405,-4265,8113,-2,-2,-16440,0,399,-4280,8079,-4,0,16436,0,406,-4245,8065,-3,-2,-26440,0,413,-4267,8081,-4,-1,16436,0,406,-4265,8041,-6,-1,06436,0,416,-4263,8088,-4,-1,-16440,0,402,-4248,8109,-2,2,-16436,0,409,-4243,8078,-3,-2,16440,0,385,-4262,8045,-5,0,-16432,0,378,-4282,8044,-4,-1,06432,0,399,-4271,8080,-4,-1,16436,0,391,-4287,8069,-2,0,26428,0,403,-4263,8073,-5,-1,16432,0,382,-4246,8111,-5,-2,-16440,0,386,-4250,8071,-3,-3,16436,0,386,-4255,8083,-5,-1,06436,0,396,-4262,8080,-4,0,06428,0,385,-4243,8062,-4,1,06428,0,398,-4258,8045,-5,-4,-16440,0,416,-4243,8061,-4,-2,-16440,0,363,-4241,8073,-4,0,-16432,0,394,-4268,8076,-4,-1,16444,0,421,-4233,8086,-3,-3,-26440,0,369,-4254,8074,-4,-2,06436,0,405,-4248,8089,-5,1,-16436,0,412,-4273,8084,-5,1,-16436,0,414,-4272,8102,-2,-2,16436,0,410,-4269,8093,-4,-2,-16440,0,381,-4254,8055,-4,-1,-16448,0,400,-4269,8094,-1,1,-16440,0,416,-4254,8080,-5,-3,06432,0,374,-4262,8093,-2,-1,06432,0,394,-4247,8102,-4,1,06428,0,398,-4244,8067,-2,0,-16436,0,399,-4259,8072,-5,0,06428,0,412,-4272,8082,-3,-2,-16444,0,389,-4252,8113,-4,-2,-36444,0,403,-4248,8079,-3,0,06428,0,417,-4251,8051,-2,-2,06432,0,396,-4265,8103,-5,-3,-16440,0,392,-4248,8108,-3,0,-16436,0,398,-4272,8109,-2,-1,-16440,0,393,-4240,8049,-5,-2,-16440,0,370,-4224,8078,-3,-2,16432,0,389,-4283,8091,-3,0,16428,0,383,-4236,8088,-4,0,-16432,0,409,-4263,8076,-3,-1,16440,0,367,-4248,8062,-3,-4,06432,0,391,-4270,8082,-3,-2,-16440,0,420,-4249,8089,-3,0,06428,0,408,-4272,8078,-4,-5,06432,0,406,-4254,8100,-2,2,16428,0,402,-4273,8106,-2,1,-36440,0,402,-4266,8083,-1,-2,-36444,0,408,-4259,8062,-4,-4,06436,0,407,-4253,8076,-6,0,06428,0,406,-4250,8086,-5,-2,-16444,0,371,-4264,8100,-3,-1,06432,0,430,-4264,8068,-2,0,06428,0,407,-4270,8092,-5,-2,16440,0,403,-4274,8074,-3,-1,06432,0,411,-4250,8078,-1,-2,06436,0,393,-4250,8125,-4,-1,06436,0,403,-4281,8050,-4,-2,-16440,0,395,-4267,8130,-3,-2,-26444,0,378,-4265,8064,-2,1,16428,0,417,-4271,8052,-2,-2,-16448,0,399,-4239,8069,-4,2,26432,0,393,-4264,8063,-2,0,06428,0,399,-4272,8107,-2,-2,16432,0,420,-4254,8094,-3,-1,16440,0,403,-4255,8077,-4,1,16428,0,394,-4255,8072,-5,0,16428,0,418,-4263,8073,-3,-2,06444,0,400,-4215,8055,-3,1,06428,0,409,-4268,8092,-3,1,16428,0,419,-4235,8083,-4,-2,16432,0,394,-4246,8038,-5,-2,26440,0,398,-4247,8092,-2,-2,06436,0,393,-4235,8056,-3,-1,-16440,0,418,-4250,8062,-3,0,26436,0,394,-4268,8075,-4,1,-16432,0,426,-4255,8122,-5,-1,06436,0,404,-4250,8073,-3,-1,-16444,0,404,-4252,8028,-1,1,16436,0,405,-4263,8082,-2,-1,16432,0,396,-4244,8092,-2,1,36428,0,386,-4273,8076,-4,-2,06444,0,407,-4252,8070,-4,0,16436,0,391,-4252,8080,-4,2,06428,0,395,-4255,8090,-2,0,-26436,0,385,-4278,8080,-2,-1,06436,0,378,-4262,8088,-3,-2,-26440,0,389,-4245,8067,-5,0,-16436,0,410,-4256,8083,-5,-2,06440,0,390,-4245,8065,-2,-4,16432,0,406,-4265,8110,-1,-2,06432,0,400,-4232,8067,-2,-1,06436,0,407,-4265,8069,-6,1,06428,0,411,-4244,8067,-3,-1,-16440,0,412,-4260,8081,-3,0,16428,0,365,-4252,8064,-2,0,-26436,0,391,-4297,8089,-4,-1,06436,0,401,-4257,8091,-2,-2,26436,0,410,-4239,8048,-5,-2,06432,0,387,-4235,8080,-5,-2,16440,0,398,-4248,8057,-2,-1,-16444,0,411,-4279,8082,-3,1,06424,0,401,-4274,8071,-4,1,-36436,0,424,-4247,8092,-3,-2,16436,0,394,-4277,8093,-3,-2,26436,0,402,-4263,8031,-6,-2,06436,0,414,-4268,8072,-5,1,-16444,0,424,-4257,8113,-3,1,-26432,0,417,-4262,8057,-5,-2,16436,0,398,-4261,8068,-3,-2,-16444,0,405,-4238,8065,-2,0,06428,0,382,-4263,8073,-4,-2,06436,0,399,-4250,8067,-2,-2,26436,0,395,-4259,8061,-5,-1,-16448,0,385,-4237,8088,-3,0,16428,0,403,-4258,8074,-5,-1,16436,0,378,-4282,8074,-4,-2,-16444,0,374,-4294,8078,-2,-2,16436,0,393,-4232,8079,-4,-2,-16440,0,387,-4257,8064,-7,1,-16436,0,396,-4257,8077,-4,-3,06436,0,402,-4263,8078,-5,0,-36432,0,395,-4257,8052,-2,-1,06436,0,379,-4256,8091,-3,0,-26444,0,404,-4287,8067,-4,-2,26432,0,417,-4273,8058,-4,-2,06432,0,399,-4267,8090,-3,1,06436,0,409,-4249,8028,-3,-3,36440,0,392,-4251,8065,-6,-1,06436,0,389,-4254,8122,-3,-3,16436,0,383,-4238,8079,-3,1,-26436,0,422,-4269,8074,-3,-2,06432,0,381,-4275,8073,-3,0,06428,0,422,-4264,8109,-4,-2,06436,0,389,-4225,8091,-3,-1,06436,0,389,-4271,8106,-2,-1,06432,0,388,-4262,8088,-4,-5,16436,0,398,-4259,8073,-1,-2,-16440,0,410,-4240,8060,-4,-2,-16440,0,417,-4269,8075,-6,-4,-16444,0,385,-4270,8067,-3,-1,-16440,0,393,-4250,8066,-5,2,-16436,0,397,-4239,8102,-3,-1,26436,0,390,-4263,8060,-5,3,-16444,0,399,-4265,8053,-6,-2,36432,0,378,-4266,8067,-4,0,26428,0,402,-4275,8065,-3,-1,-26440,0,388,-4230,8077,-2,-2,06432,0,397,-4277,8089,-3,0,16428,0,399,-4227,8086,-3,-4,06436,0,401,-4254,8064,-3,1,06436,0,387,-4232,8102,-2,1,-16436,0,378,-4292,8090,-5,-3,16436,0,404,-4249,8062,-4,-1,-16440,0,398,-4262,8035,-5,2,-16440,0,402,-4281,8078,-4,-2,-16440,0,426,-4287,8084,-2,-4,06436,0,399,-4247,8069,-6,0,16432,0,402,-4276,8063,-4,-1,-16448,0,396,-4279,8091,-3,1,26428,0,422,-4269,8069,-4,0,16428,0,399,-4291,8084,-4,-1,16432,0,392,-4232,8109,-6,1,-16436,0,383,-4244,8078,-5,-1,06436,0,413,-4264,8102,-3,1,-26440,0,413,-4254,8107,-5,1,06428,0,429,-4261,8087,-6,0,26428,0,400,-4259,8075,-4,-2,16432,0,399,-4225,8110,-5,-2,-36440,0,375,-4254,8098,-3,0,-16436,0,421,-4256,8075,-3,0,-16436,0,377,-4232,8069,-1,-2,16440,0,388,-4266,8110,-1,-2,16440,0,397,-4259,8058,-3,-4,06436,0,366,-4256,8085,-3,-2,06436,0,424,-4270,8094,-3,0,26428,0,392,-4251,8114,-5,1,-16432,0,385,-4267,8084,-4,-1,06436,0,402,-4270,8065,-2,-1,-26448,0,402,-4241,8106,-1,-2,06432,0,393,-4266,8066,-2,-1,06432,0,410,-4263,8069,-2,-3,-16440,0,402,-4252,8067,-5,0,16432,0,404,-4255,8079,-3,0,16428,0,401,-4291,8081,-3,1,06424,0,380,-4261,8089,-3,0,06436,0,404,-4259,8092,-3,-2,-36440,0,393,-4271,8092,-4,1,-36436,0,406,-4254,8072,-5,-1,06432,0,397,-4295,8085,-3,0,-46432,0,376,-4243,8060,-3,-1,06432,0,383,-4247,8061,-2,-3,36436,0,384,-4262,8053,-5,-1,06436,0,416,-4276,8079,-2,-4,06436,0,384,-4263,8076,-2,-2,-16444,0,382,-4245,8089,-1,-5,-16440,0,393,-4251,8047,-5,-1,-16448,0,390,-4250,8045,-4,-2,16432,0,397,-4244,8106,-3,-1,06436,0,404,-4261,8072,-2,-1,-16444,0,392,-4260,8063,-4,2,36428,0,408,-4243,8054,-4,-3,26432,0,373,-4261,8082,-3,-1,06436,0,404,-4268,8062,-4,-2,-36448,0,381,-4235,8074,-3,-2,06436,0,405,-4269,8088,-5,-1,-16444,0,393,-4248,8046,-5,1,16432,0,415,-4267,8060,-5,-1,-16444,0,393,-4256,8046,-4,-2,26436,0,398,-4269,8069,-3,1,-16444,0,383,-4259,8062,-5,-2,06436,0,383,-4255,8089,-3,-1,06436,0,408,-4245,8099,-1,-5,36436,0,420,-4266,8059,-4,-1,-16440,0,391,-4281,8039,-5,-2,-16444,0,418,-4262,8075,-5,-3,16436,0,400,-4284,8084,-1,-3,06436,0,391,-4249,8073,-6,-2,16436,0,380,-4255,8089,-4,-3,-16444,0,377,-4265,8063,-2,-1,26436,0,404,-4259,8075,-2,-1,-26448,0,399,-4275,8089,-3,-3,16436,0,384,-4259,8079,-5,0,-16436,0,436,-4273,8051,-3,-3,-16448,0,384,-4248,8091,-4,-2,16436,0,405,-4267,8029,-2,-1,-26440,0,404,-4256,8100,-4,-2,06444,0,402,-4239,8084,-4,-5,16436,0,399,-4253,8051,0,-1,06428,0,401,-4254,8081,-4,-3,06432,0,379,-4270,8057,-4,1,-36440,0,373,-4259,8078,-5,1,26428,0,416,-4261,8082,-3,-1,16432,0,403,-4274,8071,-1,-3,16444,0,400,-4249,8082,-5,-2,06432,0,396,-4257,8050,-3,-1,06436,0,393,-4259,8097,-5,1,06428,0,402,-4262,8089,-4,2,26428,0,395,-4261,8083,-3,0,-16436,0,396,-4254,8055,-4,1,36428,0,404,-4248,8119,-4,3,16432,0,372,-4256,8099,-2,0,16432,0,376,-4272,8052,-3,-1,06436,0,411,-4245,8058,-4,1,06428,0,401,-4247,8061,-3,2,06428,0,398,-4255,8096,-4,-1,06436,0,393,-4265,8081,-6,-4,-16440,0,391,-4277,8083,-3,-4,-16444,0,399,-4267,8087,-3,0,06432,0,406,-4237,8071,-1,0,-16432,0,378,-4233,8032,-3,-1,-16440,0,398,-4239,8059,-5,0,-36432,0,391,-4265,8073,-3,0,-16436,0,404,-4276,8073,-3,-1,16436,0,415,-4259,8088,-2,-1,16444,0,407,-4253,8061,-5,1,06436,0,381,-4276,8044,-5,0,-16432,0,374,-4272,8060,-5,-1,16436,0,390,-4270,8060,-5,-2,-16448,0,411,-4295,8105,-5,-3,-16440,0,396,-4272,8063,-4,-5,06432,0,388,-4268,8039,-4,-3,-36440,0,382,-4252,8067,-3,-2,16436,0,383,-4271,8091,-2,0,-16440,0,397,-4278,8100,-3,3,16428,0,407,-4249,8057,-3,2,16432,0,409,-4284,8083,-2,0,26428,0,383,-4256,8067,-6,-2,-16444,0,404,-4248,8094,-1,-1,-26440,0,394,-4240,8099,-2,0,06428,0,407,-4259,8082,-4,1,06428,0,416,-4268,8070,-3,-2,06432,0,398,-4250,8054,-2,0,26436,0,409,-4270,8078,-4,-1,-16440,0,382,-4262,8103,-4,-2,26436,0,395,-4276,8107,-2,0,16428,0,378,-4265,8114,-4,-1,06432,0,395,-4266,8067,-2,-2,-16440,0,420,-4241,8062,-2,-3,06436,0,391,-4255,8049,-3,-1,16436,0,417,-4254,8076,-4,2,26428,0,423,-4248,8049,-2,-3,-16440,0,393,-4257,8073,-5,-2,06440,0,399,-4266,8062,-6,-2,16436,0,402,-4263,8051,-4,2,16428,0,388,-4257,8112,-1,-3,-26448,0,402,-4248,8069,-3,-3,16440,0,404,-4268,8063,-3,-2,-16440,0,379,-4257,8076,-2,-3,16432,0,368,-4248,8060,-1,0,06432,0,392,-4263,8071,-2,2,-16436,0,404,-4260,8054,-4,-4,06432,0,411,-4271,8082,-2,-2,06440,0,413,-4260,8091,-4,0,16424,0,410,-4266,8092,-4,0,-36436,0,390,-4248,8080,-4,-3,26436,0,399,-4247,8078,-3,-2,-16440,0,396,-4256,8038,-2,0,16428,0,426,-4253,8085,-5,1,16428,0,407,-4249,8063,-2,-3,06436,0,398,-4238,8065,-3,0,06428,0,374,-4245,8070,-3,0,06428,0,398,-4265,8070,-3,-3,-26440,0,383,-4228,8085,1,-3,26428,0,402,-4274,8091,-2,-3,-16440,0,382,-4275,8067,-4,-3,-16440,0,413,-4252,8050,-5,0,36436,0,403,-4243,8070,-2,-3,26440,0,411,-4263,8087,-3,0,06428,0,405,-4245,8090,-4,0,16428,0,388,-4270,8085,-3,0,06428,0,393,-4254,8088,-3,-2,-16440,0,434,-4234,8075,-3,0,06428,0,411,-4251,8073,-4,1,06432,0,387,-4259,8057,-2,0,-16440,0,401,-4252,8081,-4,-3,-26440,0,410,-4253,8057,-2,-1,-26440,0,403,-4244,8067,-2,-1,-46440,0,402,-4273,8064,-2,-1,06436,0,402,-4271,8061,-6,-2,-16440,0,421,-4253,8105,-2,0,26432,0,405,-4275,8075,-1,-1,06436,0,418,-4247,8063,-2,-3,26432,0,394,-4286,8107,-3,1,16428,0,400,-4266,8069,-4,-1,-26440,0,404,-4271,8094,-2,-5,26432,0,402,-4266,8048,-4,-2,-26440,0,419,-4261,8071,-3,0,06424,0,393,-4257,8056,-2,0,-36436,0,391,-4238,8080,-3,-2,26436,0,407,-4248,8055,0,-2,06428,0,369,-4227,8100,-5,-1,16444,0,383,-4258,8062,-4,0,-26436,0,418,-4231,8084,-4,0,-36440,0,396,-4280,8083,-3,-2,26436,0,393,-4260,8074,-3,-4,26436,0,396,-4248,8080,-2,1,36428,0,392,-4262,8079,-4,-1,-16440,0,379,-4271,8093,-3,-1,16432,0,417,-4262,8068,-4,0,06428,0,407,-4257,8044,-6,-2,06432,0,400,-4265,8071,-4,0,06428,0,390,-4272,8106,-4,0,36428,0,400,-4265,8072,-3,1,-16432,0,396,-4269,8099,-5,0,-16436,0,398,-4260,8042,-4,-1,-26448,0,407,-4254,8061,-3,0,06428,0,403,-4272,8023,-3,-2,-16440,0,400,-4244,8087,-4,0,-16432,0,414,-4289,8092,-3,-1,06432,0,395,-4256,8088,-3,-1,-26440,0,400,-4268,8065,-4,-1,-16444,0,384,-4242,8074,-3,0,26428,0,380,-4249,8084,-1,1,06428,0,415,-4233,8076,-4,0,-16436,0,394,-4289,8075,-3,-4,06436,0,424,-4255,8063,-2,0,06428,0,430,-4266,8084,-3,0,36428,0,413,-4257,8100,-3,-4,-26448,0,399,-4245,8073,-3,-1,16444,0,398,-4253,8098,-5,0,-16436,0,417,-4249,8088,-2,-1,16436,0,387,-4282,8109,-3,0,-26436,0,407,-4255,8072,-5,-2,16436,0,419,-4270,8072,-1,3,-16436,0,381,-4269,8064,-5,-1,16436,0,396,-4241,8097,-3,-2,06440,0,400,-4265,8112,-3,-3,16436,0,433,-4258,8071,-4,0,06432,0,407,-4248,8070,-5,0,-16436,0,380,-4245,8068,-5,-2,06436,0,426,-4257,8078,-5,-1,16436,0,407,-4272,8067,-4,-3,-16448,0,433,-4256,8073,-3,-1,-16440,0,385,-4264,8073,-3,-1,16432,0,376,-4275,8032,-4,0,16428,0,402,-4244,8084,-3,0,26428,0,403,-4257,8080,-2,1,06424,0,420,-4239,8093,-4,-3,-16440,0,381,-4269,8091,-2,-3,06436,0,393,-4270,8083,-4,1,26428,0,397,-4239,8078,-5,0,-16432,0,379,-4259,8096,-1,-3,06436,0,413,-4241,8086,-1,0,16428,0,388,-4263,8086,-2,-1,06436,0,388,-4264,8092,-5,-3,06436,0,395,-4279,8110,-2,0,16432,0,383,-4249,8086,-4,0,16428,0,404,-4259,8071,-5,-2,26432,0,411,-4227,8085,-3,-2,26432,0,423,-4263,8060,-3,-1,-16444,0,400,-4262,8067,-3,1,06428,0,417,-4256,8046,-4,-1,-16440,0,399,-4258,8106,-5,-1,26432,0,389,-4256,8081,-5,-1,06436,0,387,-4253,8064,-3,-1,16436,0,411,-4272,8088,-3,-2,-16444,0,379,-4272,8060,-1,-2,-16448,0,391,-4238,8119,-4,0,06428,0,389,-4284,8070,-4,-2,06432,0,382,-4253,8055,-3,-3,-16448,0,429,-4266,8101,-3,-3,36432,0,410,-4282,8037,-4,0,-16432,0,401,-4258,8088,-3,2,16436,0,390,-4295,8071,-4,0,16428,0,416,-4266,8082,-3,-1,26436,0,398,-4257,8085,-5,-1,-26440,0,386,-4239,8092,-2,-1,06436,0,391,-4247,8109,-3,-2,-16440,0,407,-4264,8061,-6,3,06428,0,376,-4271,8071,-3,-1,16436,0,412,-4248,8073,-3,0,-36440,0,392,-4276,8076,-3,-3,06436,0,406,-4253,8056,-3,0,-26436,0,386,-4269,8078,-2,1,-26440,0,422,-4255,8054,-6,-2,-16444,0,399,-4267,8093,-3,-3,06436,0,388,-4266,8064,-4,0,16432,0,417,-4268,8074,-3,0,36432,0,380,-4243,8077,-4,-1,-16440,0,405,-4281,8063,-3,1,-36432,0,403,-4269,8076,-2,-2,-16444,0,412,-4249,8096,-4,0,06428,0,393,-4250,8085,-1,0,06428,0,400,-4274,8093,-5,1,06432,0,397,-4274,8075,-3,-1,16440,0,379,-4288,8078,-2,-1,-16444,0,393,-4273,8064,-3,-1,06436,0,419,-4238,8074,-5,0,-16436,0,392,-4262,8083,-5,0,16428,0,409,-4250,8080,-3,-2,-26440,0,397,-4248,8108,-3,-1,-16444,0,399,-4259,8052,-4,-2,16432,0,395,-4283,8060,-6,0,-26432,0,391,-4248,8077,-1,0,-26436,0,378,-4273,8058,-3,-2,-26448,0,409,-4275,8080,-3,0,-16436,0,413,-4251,8058,-4,-1,-16440,0,393,-4255,8056,-4,2,16432,0,373,-4266,8070,-3,-2,16436,0,391,-4278,8063,-3,-2,06436,0,414,-4269,8068,-5,-1,06444,0,390,-4262,8073,-4,-4,06432,0,396,-4265,8058,-3,-1,06436,0,408,-4280,8070,-4,-2,06436,0,397,-4269,8109,-4,0,06436,0,399,-4257,8096,-4,1,-16436,0,411,-4275,8081,-4,1,36428,0,410,-4279,8069,-5,-3,-16448,0,405,-4252,8063,0,-3,-16444,0,389,-4242,8055,-4,-3,06432,0,380,-4279,8061,-3,1,16428,0,408,-4236,8082,-5,2,06428,0,412,-4279,8071,-4,0,16428,0,407,-4270,8067,-3,2,06428,0,378,-4236,8066,-1,-1,-16444,0,395,-4264,8093,-1,-4,-26440,0,416,-4264,8061,-3,-4,06436,0,402,-4259,8067,-5,0,-26436,0,394,-4273,8064,-3,-2,16436,0,395,-4278,8082,-4,-1,16432,0,389,-4279,8056,-4,1,06428,0,386,-4256,8064,-3,3,-26440,0,414,-4262,8081,-4,-4,16436,0,404,-4282,8068,-4,0,06428,0,399,-4261,8074,-5,-1,-16440,0,397,-4263,8089,-4,-1,16432,0,410,-4282,8078,-5,1,26428,0,396,-4252,8074,-1,-2,-16444,0,407,-4257,8086,-3,-2,06444,0,405,-4266,8077,-3,1,06436,0,374,-4266,8096,-2,-1,-26440,0,409,-4256,8081,-2,-1,-16440,0,423,-4281,8069,-4,1,06428,0,434,-4240,8083,-3,0,06428,0,402,-4252,8066,-3,-1,06436,0,402,-4284,8056,-2,1,16436,0,391,-4258,8084,-5,-1,06436,0,386,-4258,8045,-2,-3,06432,0,373,-4270,8090,-4,-5,-16440,0,388,-4264,8022,-3,-2,-26440,0,397,-4271,8069,-5,0,16428,0,401,-4268,8083,-4,-1,26436,0,387,-4263,8077,-5,1,16432,0,396,-4252,8096,-4,-1,06432,0,429,-4260,8085,-5,3,-16432,0,375,-4262,8080,-2,0,-16436,0,390,-4267,8039,-2,0,16428,0,417,-4269,8074,-4,-2,-16440,0,410,-4254,8077,-4,-3,06432,0,407,-4250,8076,-1,-1,06432,0,402,-4235,8078,-4,1,16428,0,401,-4283,8067,-3,-1,06436,0,385,-4237,8067,-6,-4,-26444,0,409,-4262,8088,-4,0,-16444,0,376,-4262,8098,-5,-2,06436,0,412,-4289,8078,-3,2,-26436,0,383,-4255,8048,-5,-3,26444,0,394,-4268,8080,-4,0,-26432,0,393,-4252,8067,-2,-2,-26440,0,398,-4281,8077,-2,1,16432,0,409,-4286,8080,-2,1,06428,0,432,-4278,8065,-3,0,-26432,0,399,-4259,8092,-3,1,16428,0,424,-4254,8055,-4,1,06428,0,407,-4260,8055,-2,0,-16432,0,413,-4249,8077,-5,-3,06432,0,422,-4259,8060,-2,0,06428,0,391,-4259,8056,-2,1,36436,0,390,-4266,8062,-3,-1,06432,0,386,-4246,8074,-4,-3,06432,0,398,-4254,8058,-3,-2,06444,0,384,-4272,8032,-2,-2,16432,0,395,-4256,8083,-2,-1,26432,0,401,-4252,8080,-5,0,26436,0,395,-4256,8093,-1,-1,-26440,0,391,-4258,8067,-2,-2,-16440,0,401,-4266,8065,-6,0,-16436,0,388,-4234,8061,-3,-1,26440,0,398,-4256,8071,-5,-1,16432,0,381,-4270,8093,-2,-3,06436,0,410,-4240,8056,-2,1,-16444,0,392,-4246,8063,-3,-1,-26444,0,412,-4257,8083,-3,0,06428,0,385,-4250,8065,-3,-2,-16440,0,384,-4248,8090,-2,-1,26432,0,396,-4257,8073,-4,1,-16436,0,410,-4279,8051,-2,-1,16436,0,397,-4256,8097,-5,1,06432,0,417,-4274,8061,-2,1,16428,0,406,-4290,8068,-5,-1,-26440,0,393,-4237,8060,-5,0,06428,0,399,-4264,8055,-3,2,06428,0,400,-4270,8101,-3,0,-26436,0,393,-4261,8093,-3,0,06428,0,419,-4254,8082,-5,-3,-16448,0,396,-4260,8080,-6,-2,26436,0,414,-4251,8055,-4,-2,-16440,0,411,-4271,8076,-3,0,16428,0,387,-4271,8101,-3,-3,16436,0,394,-4246,8076,-4,-3,16432,0,390,-4267,8092,-5,-1,16436,0,395,-4263,8054,-4,-1,06444,0,380,-4259,8064,-4,1,16428,0,389,-4246,8082,-4,-1,-16440,0,385,-4270,8066,-4,-1,06432,0,404,-4263,8088,-2,-2,16436,0,404,-4283,8112,-3,-2,06436,0,398,-4268,8105,-4,-3,16436,0,386,-4235,8082,-4,1,-26436,0,407,-4283,8058,-5,0,16428,0,399,-4272,8034,-5,-3,16432,0,421,-4282,8051,-4,-4,06436,0,431,-4266,8086,-2,2,26428,0,413,-4256,8084,-5,-4,16436,0,411,-4261,8058,-4,0,-26436,0,393,-4263,8089,-4,-1,-36444,0,428,-4266,8069,-5,-3,-26440,0,391,-4269,8045,-2,1,16428,0,399,-4292,8084,-1,-1,06436,0,390,-4257,8109,-4,0,16436,0,393,-4250,8043,-1,0,16428,0,419,-4267,8069,-3,-2,16436,0,387,-4259,8093,-3,-1,36436,0,370,-4283,8082,-3,-3,06436,0,403,-4237,8051,-6,0,06428,0,406,-4280,8067,-4,-1,-16448,0,402,-4279,8078,-3,-2,16440,0,400,-4242,8051,-3,1,16428,0,401,-4248,8066,-2,-1,16440,0,408,-4280,8085,-4,1,16424,0,399,-4281,8053,-5,-3,16432,0,386,-4253,8048,-4,-1,16436,0,411,-4253,8073,-2,0,16432,0,391,-4281,8074,-1,-4,06436,0,426,-4269,8083,-3,0,36428,0,400,-4260,8105,-1,-3,-16444,0,401,-4247,8069,-1,-2,16444,0,401,-4249,8083,-1,-4,06432,0,388,-4268,8087,-2,-1,16432,0,390,-4237,8077,-2,1,06432,0,402,-4276,8085,-4,0,-26444,0,397,-4254,8079,-4,-2,-16440,0,391,-4251,8062,-3,0,06428,0,413,-4277,8086,-4,-3,-16440,0,390,-4244,8100,-3,2,-16436,0,395,-4269,8073,-5,-1,-16440,0,399,-4264,8056,-4,-1,16436,0,404,-4260,8059,-6,0,06428,0,415,-4251,8083,-3,-2,-16440,0,376,-4250,8079,-4,0,26428,0,400,-4232,8096,-4,-1,16444,0,386,-4262,8086,-2,-1,-16440,0,398,-4258,8063,-5,2,-26436,0,394,-4258,8096,0,0,-16436,0,386,-4279,8069,-3,-2,16440,0,400,-4264,8081,-3,-1,-16440,0,406,-4265,8087,-3,1,06428,0,413,-4262,8095,-3,0,16428,0,394,-4257,8116,-2,-1,-16440,0,399,-4258,8062,-3,2,36428,0,422,-4264,8065,-5,0,16432,0,391,-4257,8062,-3,1,06432,0,396,-4278,8080,-3,-2,06432,0,393,-4235,8096,-4,-2,06436,0,384,-4264,8058,-5,0,06428,0,402,-4257,8071,-3,-1,06432,0,406,-4223,8078,-3,-2,-26440,0,406,-4260,8090,-3,0,-26436,0,383,-4250,8031,-4,-1,16436,0,402,-4248,8075,-4,-3,06432,0,398,-4264,8084,-2,-1,06432,0,428,-4270,8088,-3,-1,-16448,0,388,-4261,8097,-3,-1,06432,0,401,-4271,8116,-4,3,06428,0,379,-4257,8088,-3,0,-16436,0,385,-4232,8096,-3,-3,16436,0,405,-4257,8088,-1,-1,26436,0,398,-4272,8058,-3,-1,06436,0,388,-4248,8105,-3,0,-26452,0,398,-4249,8092,-2,-1,06432,0,395,-4245,8074,-3,2,-26436,0,407,-4252,8040,-5,0,06432,0,406,-4283,8064,-3,3,16424,0,388,-4271,8080,-5,-2,06432,0,395,-4262,8085,-3,-2,26444,0,361,-4260,8095,-4,1,-16432,0,389,-4258,8089,-4,-4,06436,0,389,-4267,8052,-3,0,16428,0,413,-4275,8072,-5,-1,06436,0,403,-4244,8067,-2,-1,06432,0,382,-4268,8112,-4,1,16428,0,401,-4246,8120,-4,-1,-16444,0,390,-4263,8088,-4,-1,16436,0,415,-4229,8078,-2,-1,06432,0,383,-4253,8051,-5,-1,-16440,0,403,-4257,8089,-3,-3,-16440,0,373,-4263,8073,-4,-2,-26444,0,407,-4263,8102,-1,0,06428,0,381,-4269,8072,-5,-1,-16444,0,387,-4279,8044,-5,-2,16440,0,413,-4248,8073,-4,-1,06432,0,404,-4254,8101,-3,1,16428,0,409,-4243,8056,-1,0,06428,0,396,-4271,8117,-3,-4,-26444,0,366,-4263,8076,-4,0,06428,0,389,-4264,8082,-2,-2,06444,0,422,-4252,8057,-2,-2,06440,0,386,-4264,8075,-4,-2,-16440,0,389,-4253,8094,-5,-1,16436,0,377,-4280,8062,-4,0,-16436,0,390,-4248,8097,-3,-1,16436,0,395,-4247,8068,-4,1,16428,0,391,-4278,8096,-1,-3,-16444,0,397,-4257,8029,-4,0,-16436,0,385,-4257,8081,-3,0,-26432,0,376,-4236,8082,-7,-1,06432,0,403,-4254,8068,-4,-1,16436,0,400,-4277,8079,-3,0,-36436,0,403,-4248,8085,-3,-4,-26440,0,398,-4256,8069,-3,-2,-16440,0,375,-4242,8078,-4,0,06428,0,382,-4244,8060,-5,-2,-16440,0,408,-4254,8043,-6,0,16428,0,389,-4245,8066,-2,-3,16444,0,389,-4248,8070,-3,-2,-26440,0,402,-4264,8089,-1,-1,06436,0,397,-4276,8101,-4,0,-16440,0,404,-4248,8069,-3,0,16424,0,393,-4265,8083,-2,-1,06432,0,395,-4263,8105,-4,-2,-16444,0,413,-4261,8087,-6,2,-36440,0,394,-4255,8087,-4,-2,06436,0,413,-4288,8061,-3,-1,16436,0,390,-4262,8059,-6,-2,26436,0,400,-4254,8095,-3,-2,-26444,0,406,-4257,8082,-6,-3,16436,0,400,-4266,8099,-2,0,06436,0,399,-4249,8046,-3,0,16436,0,408,-4238,8080,0,-3,-16432,0,395,-4266,8046,-3,0,26428,0,397,-4257,8106,-2,-1,-16444,0,391,-4275,8088,-2,-1,-16440,0,384,-4248,8085,-3,-1,16432,0,407,-4263,8125,-5,0,-16440,0,389,-4265,8064,-2,2,-26432,0,399,-4256,8082,-2,0,06428,0,381,-4246,8077,-5,-1,-16444,0,404,-4242,8059,-4,-1,-16440,0,396,-4278,8088,-3,-2,06436,0,404,-4282,8059,-4,0,06428,0,412,-4256,8098,-5,-1,26440,0,407,-4276,8073,-4,0,-16436,0,385,-4233,8089,-3,0,-36436,0,381,-4275,8048,-5,0,26428,0,403,-4265,8096,-4,-1,16436,0,392,-4233,8092,-3,-2,16436,0,402,-4272,8047,-4,-2,06432,0,411,-4266,8052,-3,0,06436,0,395,-4266,8036,-5,2,16432,0,395,-4270,8077,-4,1,06428,0,395,-4242,8051,-3,1,06428,0,387,-4263,8068,-2,-1,16436,0,409,-4272,8058,-4,-2,26436,0,407,-4254,8083,-3,-3,-16440,0,409,-4273,8083,-4,0,06436,0,393,-4235,8116,-7,-2,-16440,0,396,-4237,8081,-3,2,06428,0,406,-4252,8084,-4,-3,26436,0,409,-4253,8075,-4,1,-16436,0,363,-4273,8083,-2,-2,-26440,0,392,-4261,8062,-4,1,06428,0,415,-4275,8093,-3,-2,06432,0,416,-4272,8109,-4,-2,16436,0,400,-4249,8093,-2,-2,06436,0,418,-4256,8052,-3,-2,-16444,0,396,-4259,8091,-3,-3,06440,0,402,-4269,8113,-2,-2,06436,0,391,-4265,8060,-3,-1,-16444,0,409,-4251,8103,-4,-4,06436,0,400,-4260,8072,-4,-3,-46440,0,377,-4272,8077,-3,-1,-36440,0,416,-4274,8078,-3,-2,06440,0,426,-4271,8085,-5,-1,-16444,0,396,-4257,8114,-2,1,-16436,0,388,-4245,8071,-2,2,06428,0,398,-4269,8096,-3,-2,-26440,0,414,-4240,8076,-4,-2,26432,0,410,-4260,8082,-3,-2,06432,0,407,-4276,8094,-4,0,06436,0,388,-4240,8092,-4,-2,-26440,0,400,-4249,8042,-5,0,06428,0,380,-4235,8070,-2,-2,-16440,0,433,-4244,8095,-4,2,06432,0,394,-4258,8087,-4,2,06428,0,420,-4274,8075,-3,-1,-16444,0,413,-4266,8079,-4,-1,-16452,0,398,-4279,8049,-4,-2,06440,0,411,-4259,8053,-3,0,06428,0,404,-4250,8084,-3,0,26428,0,407,-4243,8085,-3,-2,26436,0,379,-4232,8068,-3,-1,16436,0,406,-4230,8028,-6,-2,16432,0,404,-4259,8071,-4,1,06436,0,392,-4245,8034,-3,-3,06432,0,416,-4243,8101,-2,-2,06432,0,396,-4255,8041,-5,-1,-16440,0,409,-4270,8101,-2,1,26428,0,385,-4258,8068,-3,0,-36432,0,410,-4276,8074,-2,1,-26432,0,397,-4259,8066,-3,0,06432,0,393,-4251,8126,-4,-1,06436,0,417,-4267,8093,-4,1,-16432,0,402,-4267,8077,-2,-1,-16440,0,409,-4280,8085,-5,1,-16432,0,405,-4269,8103,-1,0,06428,0,412,-4263,8093,-2,-1,06432,0,404,-4270,8103,-4,0,16436,0,410,-4261,8046,-2,0,06428,0,413,-4281,8076,-5,0,16428,0,422,-4273,8038,-2,0,16428,0,388,-4262,8095,-3,-2,16432,0,388,-4227,8049,-6,0,06428,0,393,-4257,8094,-4,1,16428,0,397,-4273,8039,-3,0,-16444,0,392,-4284,8076,-5,-1,26436,0,408,-4253,8079,-5,1,16428,0,396,-4264,8095,-4,-3,06436,0,421,-4250,8078,-4,0,36428,0,403,-4254,8057,-4,2,-16436,0,395,-4266,8079,-3,1,06428,0,398,-4257,8059,-5,-2,-16444,0,412,-4244,8066,-4,-1,06436,0,385,-4246,8068,-3,0,06424,0,387,-4263,8056,-4,0,16428,0,413,-4248,8064,-4,0,16432,0,395,-4242,8090,-4,0,06428,0,402,-4255,8068,-3,0,-16432,0,399,-4260,8081,-3,-2,-16448,0,400,-4254,8081,-4,0,-36432,0,394,-4245,8085,-2,0,-16432,0,393,-4285,8081,-2,-2,16432,0,397,-4268,8079,-4,2,-16440,0,396,-4257,8075,-1,-1,-36440,0,414,-4276,8077,-4,-1,06432,0,397,-4284,8076,-4,0,-26440,0,398,-4260,8079,-2,-2,-36444,0,396,-4258,8096,-2,-1,-16440,0,406,-4267,8087,-3,-1,-26444,0,387,-4260,8089,-4,-2,06436,0,386,-4243,8069,-4,1,06428,0,373,-4275,8082,-4,-1,16436,0,410,-4236,8046,-3,-1,16436,0,409,-4257,8070,-4,-3,16436,0,394,-4281,8104,-2,0,06428,0,388,-4246,8116,-5,-1,-16444,0,411,-4266,8092,-5,-1,36436,0,382,-4277,8090,-6,1,16428,0,397,-4283,8061,-4,-1,06436,0,424,-4244,8100,-4,-2,-26444,0,397,-4216,8061,-3,2,06428,0,396,-4227,8094,-5,-1,-16440,0,361,-4262,8062,-4,1,16436,0,387,-4289,8073,-6,0,06432,0,400,-4243,8013,-5,-2,16436,0,398,-4270,8051,-3,-2,16436,0,405,-4264,8082,-4,-3,36432,0,405,-4254,8073,-4,-4,06436,0,383,-4259,8053,-3,2,-26432,0,390,-4258,8088,-2,-4,06444,0,380,-4281,8066,-3,-2,06432,0,396,-4265,8071,-3,-1,06436,0,403,-4253,8038,-1,-2,16436,0,402,-4262,8095,-3,-2,16444,0,409,-4247,8095,-3,-1,-16440,0,402,-4237,8096,-5,-3,16436,0,381,-4245,8079,-3,-1,06444,0,404,-4258,8101,-1,-3,06432,0,395,-4247,8076,-2,-1,06436,0,418,-4252,8097,-4,-2,16436,0,391,-4256,8112,-2,2,-16436,0,396,-4257,8089,-6,-2,-26444,0,410,-4261,8035,-5,0,-16436,0,403,-4266,8100,-3,-3,06444,0,399,-4262,8055,-1,0,-16432,0,393,-4256,8094,-4,-1,06436,0,424,-4272,8078,-5,1,-16436,0,367,-4270,8102,-6,0,-16432,0,390,-4246,8080,-3,-3,16436,0,402,-4271,8052,-3,1,26424,0,387,-4269,8072,-5,-3,16440,0,380,-4266,8069,-3,-1,-16440,0,365,-4258,8084,-4,1,06424,0,409,-4267,8094,-1,-1,06436,0,393,-4271,8069,-4,2,-16440,0,382,-4275,8034,-5,0,-16436,0,408,-4253,8081,-4,0,06428,0,397,-4251,8108,-4,-1,16436,0,385,-4249,8070,-2,-1,26436,0,386,-4264,8098,-2,-1,-26440,0,415,-4297,8073,-2,-3,26444,0,422,-4243,8080,-2,2,06436,0,389,-4260,8081,-3,-2,06432,0,407,-4268,8096,-4,-1,06436,0,386,-4242,8055,-2,-1,06436,0,378,-4235,8076,-3,-2,26436,0,365,-4271,8056,-3,-2,06436,0,378,-4250,8098,-2,-2,-26444,0,393,-4247,8095,-2,-2,-16444,0,424,-4255,8068,-2,0,06428,0,410,-4255,8098,-3,2,-26436,0,406,-4235,8077,-1,-1,16436,0,392,-4236,8090,-3,-3,06432,0,384,-4277,8064,-4,0,16428,0,400,-4271,8084,-3,1,06432,0,412,-4262,8063,-5,0,06436,0,403,-4251,8070,-3,-4,16432,0,400,-4257,8069,-6,0,26424,0,397,-4245,8089,-1,-1,06440,0,389,-4235,8078,-4,-2,06432,0,403,-4242,8076,-3,0,16428,0,409,-4255,8060,-1,-2,-26448,0,417,-4279,8062,-2,0,-26440,0,387,-4266,8091,-2,-2,06432,0,406,-4239,8099,-2,0,26428,0,398,-4261,8084,-4,2,-26436,0,386,-4277,8104,-4,-1,16436,0,395,-4251,8094,-5,-1,-16440,0,414,-4272,8083,-3,-4,06436,0,376,-4255,8056,-2,1,-16432,0,386,-4239,8094,-4,-1,26436,0,367,-4247,8082,-3,0,-26436,0,414,-4266,8042,-3,-2,06440,0,390,-4259,8071,-3,-1,16440,0,398,-4266,8090,-2,-1,06432,0,393,-4263,8059,-3,-2,-16440,0,401,-4251,8117,-5,0,06428,0,414,-4249,8063,-3,0,-16436,0,384,-4250,8094,-3,1,-16436,0,401,-4252,8077,-4,-3,16444,0,386,-4253,8067,-4,-3,-36440,0,401,-4254,8105,-4,-3,06432,0,375,-4282,8065,-2,-1,16432,0,384,-4264,8078,-2,-3,-26440,0,391,-4254,8070,-3,1,-16436,0,381,-4272,8059,-4,0,16432,0,388,-4286,8080,-4,-1,-16452,0,398,-4280,8093,-3,-1,16436,0,397,-4283,8083,-3,-2,16436,0,408,-4277,8095,-1,0,-16436,0,403,-4241,8068,-4,0,-16436,0,410,-4265,8079,-6,0,-26436,0,390,-4261,8082,-3,0,-16436,0,396,-4242,8057,-1,-1,-26448,0,398,-4255,8044,-5,1,-26436,0,404,-4264,8058,-2,0,-26436,0,407,-4247,8099,-4,1,06428,0,390,-4243,8095,-4,-1,06432,0,400,-4276,8091,-4,-3,26432,0,404,-4268,8082,-2,-3,06440,0,403,-4267,8098,-2,-2,26440,0,403,-4262,8082,-2,-1,-36440,0,386,-4266,8047,-7,-3,-16440,0,372,-4261,8078,-2,-1,16436,0,401,-4247,8079,-5,-2,06432,0,397,-4236,8103,-3,-4,26436,0,399,-4260,8074,-4,-3,-36440,0,406,-4264,8059,-3,0,06428,0,390,-4258,8047,-8,-3,16436,0,407,-4244,8084,-3,0,16424,0,387,-4263,8084,-3,-2,16432,0,392,-4248,8059,-5,-3,06432,0,415,-4274,8061,-3,1,06428,0,376,-4270,8065,-5,-1,16436,0,394,-4282,8033,-4,-2,06432,0,368,-4267,8042,-2,-2,06432,0,401,-4244,8053,-3,0,06428,0,391,-4261,8052,-3,-1,-26452,0,399,-4251,8053,-6,0,-26432,0,370,-4248,8047,-5,-2,06432,0,377,-4252,8094,-3,0,26432,0,388,-4269,8100,-3,0,16428,0,391,-4258,8074,-5,-1,-16440,0,398,-4257,8070,-3,-1,26432,0,402,-4269,8061,-3,0,06432,0,398,-4248,8071,-3,1,26428,0,417,-4254,8087,-4,-2,16432,0,415,-4268,8062,-5,-1,-16440,0,390,-4252,8055,-5,0,16428,0,401,-4257,8089,-4,-2,-26440,0,421,-4258,8073,-1,-3,06436,0,386,-4259,8100,-5,2,06436,0,389,-4260,8100,-3,-2,-16440,0,385,-4238,8101,-5,-2,-36440,0,386,-4248,8098,-6,-1,36436,0,396,-4287,8052,-3,-4,06436,0,398,-4266,8044,-3,-4,-16440,0,391,-4275,8060,-4,-2,06436,0,409,-4257,8075,-3,-2,-16448,0,397,-4266,8067,-5,-1,26436,0,385,-4252,8064,-3,-1,-16440,0,390,-4277,8064,-4,2,06428,0,396,-4276,8083,-2,-1,06432,0,382,-4268,8082,-3,-1,06436,0,422,-4262,8063,-4,-3,06444,0,404,-4256,8047,-5,0,16424,0,426,-4251,8069,0,0,06420,0,397,-4255,8072,-2,0,06428,0,391,-4255,8091,-5,-1,16436,0,407,-4257,8040,-5,-1,06436,0,408,-4233,8073,-5,1,06428,0,396,-4253,8101,-4,0,-16444,0,409,-4245,8066,-4,-1,06432,0,391,-4298,8077,-2,-1,16436,0,406,-4273,8073,-4,-1,06432,0,398,-4243,8077,-3,0,-26436,0,380,-4272,8077,-4,1,-26436,0,363,-4248,8067,-4,-2,-16440,0,398,-4264,8097,-4,2,36436,0,402,-4251,8062,-2,0,-16444,0,413,-4249,8056,-5,0,06428,0,400,-4272,8074,-4,-1,-16440,0,384,-4263,8137,-3,0,26432,0,402,-4258,8096,-5,-3,06432,0,406,-4247,8097,-3,1,06428,0,401,-4253,8058,-4,0,06436,0,413,-4269,8060,-3,0,26436,0,384,-4267,8095,-6,0,06428,0,414,-4269,8069,-3,-1,16436,0,374,-4259,8070,-4,-3,-16444,0,392,-4263,8051,-2,-1,06436,0,352,-4254,8101,-3,0,-16436,0,373,-4240,8098,-4,1,06436,0,383,-4276,8078,-2,0,06428,0,406,-4264,8040,-5,0,26428,0,398,-4254,8079,-2,-4,-16440,0,400,-4269,8090,-3,-1,16432,0,426,-4257,8058,-3,-1,16432,0,420,-4260,8067,-4,-3,06436,0,381,-4275,8051,-5,-3,06440,0,400,-4242,8075,-2,-2,16432,0,394,-4260,8069,-2,-2,-26440,0,389,-4261,8081,-4,-2,-16440,0,418,-4242,8117,-6,-4,06444,0,383,-4283,8094,-4,0,06428,0,389,-4252,8089,-3,-2,06432,0,395,-4248,8060,-4,2,-26432,0,400,-4240,8059,-4,1,16428,0,350,-4254,8119,-3,0,-36436,0,415,-4263,8082,-5,2,-36436,0,419,-4279,8113,-4,-2,-16452,0,406,-4264,8079,-2,-1,-16440,0,410,-4265,8081,-4,0,06428,0,415,-4279,8084,-3,-1,16432,0,407,-4268,8064,-2,-1,06432,0,359,-4273,8104,-4,-1,-16440,0,410,-4257,8065,-4,1,26432,0,404,-4253,8096,-3,0,-16436,0,409,-4228,8114,-3,-2,16436,0,396,-4260,8067,-5,-2,16436,0,401,-4255,8042,-5,-1,26444,0,421,-4242,8056,-3,0,-26432,0,407,-4261,8061,-3,-1,26432,0,393,-4237,8056,-4,-1,-26448,0,389,-4264,8122,-3,-2,-16444,0,396,-4257,8102,-4,-2,06432,0,398,-4264,8075,-7,-3,06436,0,389,-4253,8045,-5,-4,06436,0,395,-4247,8044,-5,-3,26436,0,395,-4242,8087,-4,0,16428,0,398,-4256,8060,-3,0,06436,0,400,-4257,8075,-3,1,06428,0,392,-4279,8082,-3,0,16428,0,393,-4277,8109,-5,1,26428,0,399,-4269,8047,-2,1,06428,0,415,-4259,8071,-3,-4,16432,0,393,-4259,8061,-5,-3,-16440,0,396,-4279,8104,-4,-4,06444,0,407,-4259,8074,-4,0,-26440,0,396,-4281,8055,-3,-1,06436,0,399,-4258,8049,-4,0,06428,0,408,-4247,8082,-4,0,-16436,0,386,-4264,8113,-3,-1,06432,0,402,-4284,8079,-5,0,16428,0,405,-4223,8108,-5,1,-26444,0,386,-4257,8085,-7,-2,06444,0,386,-4269,8087,-5,2,06428,0,398,-4248,8081,-5,-1,06436,0,408,-4255,8062,-5,2,16428,0,423,-4267,8093,-4,-1,26436,0,389,-4262,8062,-3,-2,36436,0,420,-4257,8062,-4,-2,06436,0,391,-4274,8102,-5,-1,06436,0,408,-4264,8063,-4,1,16428,0,391,-4246,8061,-4,0,26428,0,400,-4240,8102,-3,-2,16436,0,413,-4254,8046,-4,-1,-16440,0,391,-4271,8094,-4,0,-26436,0,389,-4279,8066,-5,-1,26436,0,394,-4260,8058,-4,-1,16436,0,393,-4264,8058,-2,-1,-16440,0,394,-4243,8071,-4,-2,16432,0,402,-4247,8081,-5,-1,16444,0,382,-4276,8043,-2,-3,-26440,0,401,-4280,8067,-2,0,16428,0,410,-4273,8068,-3,-2,06436,0,412,-4250,8099,-5,3,-16436,0,377,-4244,8072,-2,-2,36432,0,396,-4285,8065,-3,0,16428,0,409,-4269,8080,-4,0,16444,0,407,-4264,8091,-3,1,06428,0,381,-4274,8056,-3,-2,-36440,0,389,-4276,8092,-5,-2,06432,0,376,-4301,8050,-4,-2,16436,0,396,-4270,8061,-3,-3,-26440,0,383,-4251,8076,-4,1,-16436,0,411,-4255,8058,-3,1,26428,0,390,-4252,8050,-5,-3,16436,0,385,-4283,8033,1,-1,16428,0,410,-4245,8078,-3,-2,-16440,0,400,-4292,8103,-3,-1,26436,0,379,-4281,8083,-4,0,06428,0,402,-4238,8037,-5,-1,-16448,0,401,-4253,8057,-3,-1,-16440,0,404,-4274,8088,-2,0,26428,0,404,-4256,8074,-4,2,26428,0,400,-4251,8067,-3,1,-16432,0,400,-4276,8037,-1,2,-26436,0,417,-4252,8076,-3,-2,06436,0,404,-4246,8057,-4,-4,-36448,0,408,-4259,8093,-3,-1,16436,0,391,-4266,8058,-2,-2,-16440,0,395,-4260,8096,-4,0,06428,0,414,-4264,8065,-2,-3,16432,0,405,-4259,8093,-4,1,06428,0,391,-4255,8091,-3,-2,-26444,0,420,-4264,8065,-2,-2,16444,0,401,-4279,8117,-1,-1,16444,0,412,-4243,8049,-1,-1,06432,0,406,-4279,8078,-3,-1,26432,0,411,-4261,8036,-4,-1,-16440,0,399,-4263,8110,-4,-2,06436,0,398,-4268,8048,-5,-1,06436,0,384,-4263,8085,-4,1,-26436,0,400,-4266,8079,-3,-1,06440,0,383,-4242,8049,-5,1,36424,0,386,-4248,8076,-4,-2,16432,0,398,-4266,8080,-4,-1,16432,0,393,-4270,8067,-3,1,16428,0,403,-4264,8055,-3,-2,26432,0,418,-4257,8092,-6,1,16436,0,398,-4247,8075,-2,0,-26432,0,396,-4269,8083,-1,2,16428,0,392,-4230,8060,-5,0,06428,0,407,-4291,8080,-2,-1,26432,0,412,-4278,8093,-2,0,-26432,0,409,-4263,8051,-4,0,36428,0,400,-4257,8042,-3,-3,06444,0,396,-4251,8065,-4,0,-26432,0,402,-4259,8072,-5,-5,16436,0,376,-4251,8056,-6,-1,16436,0,409,-4258,8061,-3,1,16432,0,389,-4263,8075,-2,2,06428,0,380,-4250,8066,-3,1,16428,0,412,-4277,8091,-3,-3,16440,0,411,-4313,8039,-4,0,06428,0,395,-4235,8083,-5,-1,16436,0,397,-4256,8032,-4,1,-16436,0,381,-4266,8092,-4,1,06432,0,381,-4252,8049,-3,-2,06436,0,400,-4286,8101,-6,1,06428,0,380,-4264,8080,-2,-1,-16448,0,399,-4264,8068,-3,1,06428,0,398,-4263,8078,-1,0,06428,0,406,-4246,8095,-2,-2,16436,0,397,-4271,8104,-2,-2,-16452,0,389,-4266,8094,-4,-2,06436,0,397,-4265,8063,-5,0,06428,0,407,-4274,8103,-6,-2,-36440,0,386,-4263,8077,-3,-1,-16440,0,405,-4275,8017,-2,-4,-16440,0,417,-4270,8076,-3,0,06436,0,409,-4259,8103,-5,1,16428,0,392,-4262,8078,-4,-4,16436,0,386,-4239,8063,-4,1,16428,0,405,-4244,8073,-4,-4,16432,0,393,-4254,8062,-2,-2,16432,0,380,-4261,8079,-3,1,06428,0,419,-4268,8069,-4,-2,06436,0,383,-4268,8069,-3,2,-16436,0,376,-4255,8108,-4,-1,-16440,0,404,-4254,8050,-5,1,16424,0,396,-4251,8101,-3,-4,-16444,0,380,-4269,8093,-3,1,-16436,0,362,-4256,8088,-3,-3,06436,0,406,-4258,8062,-3,-2,-16448,0,387,-4242,8071,-2,0,16436,0,391,-4261,8086,-2,-2,26432,0,376,-4243,8072,-3,-1,-16440,0,398,-4249,8086,-4,-3,-16444,0,388,-4242,8086,-5,0,-16432,0,384,-4262,8094,-5,0,16428,0,415,-4278,8049,-1,0,26432,0,416,-4261,8094,-4,-2,16436,0,400,-4274,8093,-6,2,26428,0,405,-4269,8074,-2,-1,26436,0,363,-4247,8058,-3,-3,06436,0,391,-4257,8070,-2,-1,06436,0,417,-4274,8035,-6,-1,-26444,0,374,-4285,8051,-3,-2,16444,0,396,-4249,8053,-3,-3,16440,0,403,-4282,8104,-5,-2,06432,0,385,-4245,8076,-7,-3,06436,0,406,-4248,8086,-4,-1,36432,0,402,-4275,8090,-2,0,-16436,0,380,-4237,8100,-3,-1,-16440,0,395,-4270,8045,-4,-1,-16444,0,405,-4232,8063,-6,-4,-26440,0,413,-4243,8043,-4,-3,06436,0,368,-4250,8070,-7,0,06428,0,395,-4256,8112,-2,-1,16444,0,392,-4262,8086,-4,-4,06436,0,377,-4273,8079,-3,1,-16436,0,380,-4272,8060,-3,0,-36440,0,412,-4278,8056,-5,3,06424,0,382,-4245,8096,-3,2,06428,0,400,-4263,8073,-4,-2,06436,0,404,-4263,8066,-3,1,-16432,0,398,-4280,8123,-5,2,26428,0,400,-4250,8076,-3,0,-16432,0,388,-4267,8096,-5,-1,-26440,0,406,-4251,8070,-5,0,16428,0,413,-4266,8109,-3,3,16428,0,407,-4253,8069,-1,-2,-16448,0,391,-4246,8089,-3,-4,-16440,0,395,-4246,8080,-4,0,16428,0,409,-4256,8085,-4,1,-16436,0,390,-4242,8032,-6,-1,-36448,0,374,-4257,8100,-3,-1,06432,0,403,-4242,8073,-3,-1,16432,0,373,-4267,8069,-3,-1,-16448,0,419,-4241,8079,-3,0,06428,0,404,-4263,8051,-5,1,-16436,0,404,-4279,8058,-5,-2,-16440,0,399,-4263,8061,-1,2,-16432,0,386,-4252,8090,-4,-1,26436,0,425,-4250,8066,-2,-3,-26440,0,406,-4276,8083,-2,0,16436,0,387,-4257,8060,-5,-2,-16448,0,412,-4245,8073,-1,-2,-16440,0,381,-4239,8066,-5,0,-16436,0,375,-4248,8058,-4,0,06428,0,408,-4233,8092,-4,1,06428,0,414,-4264,8109,-2,-1,26432,0,394,-4242,8085,-3,2,36436,0,390,-4275,8089,-3,-3,06440,0,389,-4260,8088,-2,-1,06432,0,380,-4255,8082,-5,3,16428,0,409,-4276,8062,-4,1,06432,0,405,-4262,8090,-7,-2,-16440,0,406,-4227,8048,-1,-1,06432,0,396,-4257,8096,-4,-1,16444,0,396,-4267,8084,-4,-3,26432,0,423,-4242,8092,-4,0,06428,0,393,-4257,8052,-4,-3,-26440,0,403,-4259,8062,-4,-1,-16448,0,388,-4258,8035,1,1,06420,0,372,-4253,8087,-3,1,06428,0,373,-4275,8054,-5,0,06432,0,400,-4268,8078,-3,-1,-16440,0,371,-4249,8109,-1,-1,16436,0,391,-4270,8093,-3,-3,16432,0,411,-4251,8089,-2,0,16428,0,390,-4264,8064,-2,-1,16440,0,401,-4266,8013,-2,0,26428,0,407,-4261,8045,-1,1,-16432,0,409,-4262,8088,-6,-1,16432,0,417,-4274,8079,-4,-3,06436,0,426,-4264,8060,-2,0,06428,0,414,-4250,8109,-4,1,46424,0,415,-4287,8074,-2,-2,16432,0,403,-4250,8074,-1,1,06428,0,422,-4253,8049,-3,0,-16436,0,360,-4259,8068,-6,-3,-16444,0,386,-4254,8060,-6,2,-26436,0,409,-4253,8063,-5,0,-16436,0,406,-4244,8040,-3,1,16424,0,413,-4257,8065,-6,-4,26436,0,419,-4263,8102,-5,-3,16436,0,402,-4266,8071,-2,-2,26432,0,408,-4245,8087,-3,-2,-16440,0,374,-4237,8090,0,-1,-16436,0,390,-4270,8077,-3,0,06428,0,394,-4232,8089,-3,2,16436,0,397,-4271,8087,-2,0,-16436,0,423,-4275,8061,-4,0,26428,0,391,-4245,8068,-2,-3,-26440,0,407,-4271,8042,-3,0,-26432,0,380,-4272,8113,-4,2,-16436,0,396,-4251,8074,-4,0,06428,0,393,-4267,8085,-3,-2,16440,0,387,-4275,8093,-6,-3,16436,0,391,-4254,8080,-2,-1,06436,0,413,-4253,8080,-3,1,16428,0,376,-4260,8090,-2,0,06428,0,404,-4235,8079,-5,0,16428,0,380,-4246,8062,-3,-2,06432,0,416,-4241,8091,-5,-3,16440,0,406,-4222,8082,-4,-1,-16440,0,411,-4274,8104,-3,0,06428,0,414,-4253,8056,-3,0,-26432,0,398,-4253,8080,-5,-3,-16440,0,402,-4257,8062,-1,-3,16432,0,398,-4262,8052,-4,1,16428,0,412,-4240,8114,-5,-1,06444,0,382,-4284,8084,-3,-2,-26440,0,428,-4259,8089,-5,0,16428,0,375,-4261,8033,-5,0,06432,0,379,-4242,8058,-5,1,26424,0,383,-4271,8054,-7,-2,16432,0,389,-4272,8053,-6,-3,06444,0,376,-4255,8069,-4,1,06428,0,422,-4252,8087,-2,-1,06432,0,408,-4284,8057,-4,-1,16436,0,383,-4257,8084,-3,4,16432,0,414,-4255,8097,-3,-2,-16440,0,387,-4278,8074,-3,-2,16436,0,383,-4266,8054,-4,-2,26436,0,411,-4260,8086,-4,-3,-16444,0,422,-4250,8101,-4,-2,26436,0,386,-4262,8070,-3,-3,06440,0,391,-4259,8020,-4,-1,26436,0,405,-4262,8091,-5,-1,-16440,0,392,-4269,8082,-4,-1,16436,0,402,-4260,8094,-4,-1,16436,0,388,-4239,8071,-4,0,06428,0,389,-4270,8083,-3,1,06428,0,421,-4259,8083,-2,0,06424,0,401,-4261,8101,0,-4,06428,0,393,-4275,8055,-3,-2,06436,0,379,-4251,8094,-4,-1,06436,0,370,-4269,8078,-4,-3,26444,0,384,-4251,8056,-6,-1,26440,0,406,-4283,8063,-2,-1,-16440,0,405,-4221,8091,-1,-1,-16440,0,411,-4275,8094,-2,-3,06436,0,393,-4255,8090,-2,-2,06436,0,392,-4272,8083,-3,0,-16436,0,387,-4263,8082,-3,2,16436,0,408,-4283,8078,-5,-3,-26440,0,399,-4246,8076,-6,-1,06436,0,415,-4274,8080,-2,-3,-26440,0,395,-4254,8104,-3,0,-26432,0,393,-4275,8076,-5,-3,26436,0,385,-4259,8043,-3,1,-16436,0,394,-4257,8073,-2,0,26428,0,393,-4261,8066,-6,0,-16436,0,380,-4265,8062,-5,2,-16436,0,409,-4261,8082,-4,2,06428,0,383,-4254,8072,-5,1,-16432,0,390,-4242,8114,-3,-3,-16440,0,396,-4268,8088,-2,1,06428,0,387,-4254,8089,-2,3,26428,0,391,-4277,8062,-3,-5,-26440,0,422,-4287,8110,-2,-1,06432,0,385,-4274,8084,-5,-1,-16440,0,398,-4271,8100,-2,-4,-26448,0,413,-4266,8030,-4,0,16424,0,388,-4252,8093,-3,0,-16436,0,417,-4254,8051,-5,-1,-26440,0,384,-4268,8089,-3,-1,06436,0,380,-4262,8053,-4,0,06428,0,382,-4252,8080,-3,-2,-16448,0,401,-4256,8095,-4,0,16428,0,401,-4253,8057,-7,2,-16432,0,388,-4260,8061,-4,1,06428,0,414,-4241,8097,-3,-3,16440,0,388,-4261,8059,-4,-1,-26440,0,396,-4243,8091,-3,-3,16432,0,400,-4279,8059,-4,-4,16436,0,367,-4260,8057,-5,-1,-26440,0,370,-4279,8085,-2,0,-36432,0,396,-4283,8075,-3,-2,-16440,0,391,-4258,8051,-4,0,16428,0,385,-4265,8060,-4,0,-16436,0,415,-4269,8102,-4,3,06428,0,420,-4258,8069,-2,-1,-16448,0,399,-4242,8083,-4,1,-16436,0,412,-4256,8071,-5,-2,16436,0,423,-4257,8056,-4,-4,06436,0,404,-4259,8069,-3,-3,16436,0,383,-4268,8109,-4,1,16428,0,372,-4275,8090,-2,1,-16436,0,398,-4247,8043,-2,-2,06436,0,380,-4256,8054,-3,-2,06436,0,403,-4257,8119,-1,2,-16432,0,389,-4266,8099,-3,-1,-16440,0,369,-4262,8087,-4,-3,-16444,0,396,-4254,8106,-4,-4,16432,0,391,-4248,8080,-2,-4,-16440,0,395,-4266,8067,-3,-2,16444,0,415,-4259,8089,-3,-1,16432,0,384,-4253,8090,0,1,-16428,0,412,-4259,8080,-2,2,06428,0,388,-4244,8098,-1,-1,-26440,0,409,-4242,8084,-3,-1,-16440,0,412,-4234,8073,-4,-2,06432,0,380,-4285,8075,-1,-1,-16440,0,374,-4266,8058,-3,0,26428,0,392,-4247,8065,-6,2,-16436,0,417,-4257,8069,-5,1,06428,0,423,-4238,8071,-3,-1,-16440,0,400,-4279,8054,-4,-2,-16440,0,400,-4248,8055,-3,-2,-16440,0,391,-4249,8081,-1,1,06428,0,387,-4269,8065,-4,-2,-16440,0,394,-4247,8096,-1,1,-26436,0,391,-4252,8101,-4,-3,06436,0,372,-4283,8055,-1,-1,06440,0,371,-4269,8046,-5,0,-26432,0,399,-4246,8082,-4,0,-26432,0,415,-4242,8072,-4,-2,16436,0,389,-4279,8052,-5,0,16428,0,391,-4276,8075,-7,-3,06432,0,401,-4268,8061,-4,-2,26432,0,404,-4259,8064,-4,-2,16440,0,407,-4269,8110,-3,-1,06432,0,408,-4271,8091,-2,0,-26436,0,383,-4262,8085,-3,0,06428,0,393,-4237,8101,-5,-1,-16440,0,400,-4246,8089,-4,-3,-16440,0,418,-4251,8098,-4,-1,26444,0,401,-4277,8089,-4,-3,-46448,0,400,-4267,8044,-4,-2,16432,0,379,-4275,8072,-4,-1,06432,0,390,-4247,8080,-4,-3,16436,0,407,-4261,8079,-2,-2,-26440,0,407,-4258,8047,-3,-2,16432,0,391,-4261,8050,-5,-4,-36444,0,411,-4245,8089,-4,-1,-46440,0,396,-4262,8047,-1,-2,06436,0,398,-4275,8083,-6,0,16428,0,400,-4256,8096,-3,-1,06436,0,375,-4242,8089,-3,1,06428,0,404,-4263,8087,-3,-2,-16440,0,397,-4250,8099,-2,-1,-16452,0,389,-4246,8111,-3,-4,06440,0,428,-4245,8108,-3,-2,16432,0,403,-4278,8076,-2,-1,06432,0,392,-4246,8081,-5,-2,-16444,0,384,-4248,8075,-3,1,06428,0,406,-4257,8075,-4,-2,-26440,0,400,-4248,8065,-6,0,-16436,0,379,-4244,8085,-3,0,16428,0,402,-4260,8079,-3,-3,16432,0,417,-4263,8053,-5,-1,-26440,0,402,-4253,8068,-2,0,16424,0,417,-4262,8089,-3,-1,06432,0,383,-4250,8065,-4,-1,16432,0,407,-4269,8074,-3,0,06432,0,393,-4246,8092,-5,-1,36436,0,396,-4245,8096,-2,1,-26432,0,376,-4264,8069,-4,2,16428,0,408,-4242,8116,-3,-1,06436,0,398,-4271,8053,-4,1,-26436,0,405,-4242,8061,-4,4,-26436,0,402,-4258,8055,-3,2,16428,0,413,-4273,8050,-5,0,-16436,0,385,-4267,8057,-4,-3,06436,0,400,-4262,8097,-2,0,06428,0,392,-4264,8059,-7,-1,06444,0,398,-4248,8042,-5,0,-16432,0,399,-4269,8049,-2,-2,06432,0,390,-4276,8062,-3,-1,06432,0,413,-4272,8071,-2,0,16428,0,401,-4257,8102,-4,-2,06432,0,370,-4263,8090,-2,-1,26432,0,388,-4253,8063,-1,-1,06440,0,392,-4235,8116,-2,-2,-26444,0,409,-4244,8042,-3,-1,-26440,0,381,-4253,8049,-2,-3,06444,0,395,-4257,8045,-4,-2,-26440,0,379,-4257,8073,-4,-1,16436,0,401,-4270,8080,-2,-1,-16448,0,411,-4245,8053,-3,1,36436,0,412,-4245,8093,-4,0,-26436,0,404,-4263,8078,-5,0,-16436,0,372,-4273,8091,-6,-3,16436,0,424,-4232,8060,-4,1,06428,0,415,-4251,8071,-3,0,16428,0,391,-4249,8053,-6,-1,-26448,0,417,-4237,8095,-4,-2,-16440,0,383,-4230,8055,-1,-3,-36440,0,393,-4239,8089,-3,-1,-16440,0,409,-4263,8091,-2,0,-16436,0,381,-4248,8109,-4,-1,06436,0,413,-4266,8035,-1,0,-16436,0,387,-4271,8071,-2,0,26436,0,394,-4250,8080,-4,-1,-26440,0,396,-4265,8093,-5,0,16428,0,384,-4262,8065,-3,-1,06432,0,388,-4272,8061,-3,0,06432,0,415,-4269,8098,-4,1,-16436,0,405,-4257,8064,-3,0,06428,0,384,-4288,8127,-6,1,16436,0,402,-4267,8071,-4,-3,-16440,0,411,-4256,8049,-4,-2,06432,0,394,-4262,8091,-5,0,36428,0,381,-4265,8060,-3,-2,16444,0,385,-4273,8086,-2,-2,16432,0,400,-4257,8091,-2,-2,-26440,0,361,-4233,8090,-2,0,-16432,0,379,-4265,8064,-4,-2,-26440,0,404,-4260,8046,-5,-4,-16440,0,385,-4262,8081,-4,2,06428,0,391,-4269,8113,-2,0,36432,0,379,-4266,8079,-4,-1,-16440,0,366,-4247,8062,-3,0,16428,0,415,-4261,8065,-3,1,36428,0,388,-4266,8080,-4,0,06428,0,408,-4264,8094,-3,-2,16432,0,398,-4256,8054,-4,-4,06432,0,403,-4241,8095,-4,-4,06440,0,396,-4264,8090,-6,-3,16432,0,385,-4257,8046,-3,0,26428,0,398,-4250,8089,-5,-2,26436,0,386,-4271,8076,-3,0,16428,0,404,-4251,8063,-3,-1,-36440,0,383,-4263,8073,-3,0,-26432,0,394,-4257,8106,-3,-1,06444,0,407,-4279,8079,-4,-1,-26440,0,402,-4247,8088,-1,-2,-16440,0,380,-4266,8082,-3,-2,06436,0,415,-4242,8081,-3,-1,06432,0,391,-4271,8054,-2,-2,-36440,0,389,-4261,8058,-5,-1,16436,0,401,-4281,8067,-4,0,-26436,0,391,-4275,8085,-2,-2,06432,0,380,-4275,8061,-4,1,06428,0,389,-4233,8056,-4,-1,06436,0,398,-4263,8074,-4,0,16428,0,393,-4273,8089,-3,0,06428,0,375,-4253,8109,-4,-3,16440,0,389,-4263,8076,-3,-2,-16448,0,412,-4246,8083,-5,-1,06432,0,391,-4271,8096,-3,-3,06436,0,389,-4277,8066,-5,-1,16436,0,420,-4270,8119,-2,1,06428,0,393,-4249,8090,-2,-1,06436,0,395,-4253,8066,-2,-1,-16452,0,386,-4276,8105,-2,2,-26432,0,401,-4259,8047,-5,0,26428,0,384,-4268,8083,-3,0,16428,0,412,-4288,8045,-3,-1,-16440,0,404,-4277,8088,-5,-1,06432,0,426,-4291,8101,-1,0,16428,0,382,-4275,8064,-3,1,06436,0,403,-4260,8092,-4,3,-26436,0,422,-4277,8051,-4,-4,-26440,0,403,-4253,8097,-5,-3,-16440,0,407,-4268,8078,-2,-2,06432,0,391,-4250,8059,-5,-3,16436,0,394,-4269,8095,-3,-2,-26444,0,391,-4255,8065,-2,-2,16444,0,406,-4269,8102,-2,0,-26440,0,376,-4253,8080,-7,-2,06432,0,397,-4279,8061,-4,-3,-16440,0,391,-4247,8062,-4,-3,-16440,0,389,-4263,8082,-1,2,-16432,0,403,-4253,8068,-3,0,16428,0,396,-4261,8068,-6,2,26432,0,381,-4259,8074,-2,-1,26436,0,402,-4250,8108,-1,-1,06432,0,405,-4283,8090,-4,0,06428,0,376,-4266,8115,-4,-3,06436,0,405,-4260,8054,-3,-1,26432,0,396,-4267,8071,-3,-4,16436,0,368,-4224,8075,-5,-2,-36444,0,399,-4261,8071,-3,-2,16436,0,395,-4283,8060,-2,-1,-16440,0,390,-4256,8074,-4,-1,16436,0,402,-4244,8068,-3,-2,16440,0,391,-4267,8075,-3,1,-16436,0,421,-4259,8050,-3,-2,06436,0,383,-4263,8083,-3,0,16436,0,384,-4265,8051,-6,1,-16432,0,411,-4260,8093,-3,3,26428,0,385,-4248,8081,-3,1,06428,0,400,-4236,8077,-2,1,-26432,0,392,-4237,8068,-3,-2,-16440,0,403,-4250,8097,-4,-1,36436,0,405,-4263,8076,-3,-2,-16440,0,388,-4251,8072,-4,0,-26432,0,414,-4248,8076,-4,0,36428,0,392,-4255,8072,-3,1,06436,0,417,-4251,8074,-5,1,16428,0,381,-4255,8046,-6,1,-36436,0,401,-4271,8056,-2,-2,-16440,0,405,-4271,8030,-1,-1,06440,0,384,-4278,8070,-4,-2,-16440,0,396,-4258,8115,-3,-3,-16440,0,394,-4260,8038,-2,0,16436,0,389,-4261,8060,-2,-1,06440,0,412,-4272,8080,0,0,16420,0,391,-4262,8086,-2,1,06428,0,420,-4263,8089,-3,-2,06436,0,402,-4255,8057,-4,4,06428,0,415,-4248,8085,-3,-1,-26440,0,384,-4272,8085,-4,-1,-16444,0,415,-4253,8070,-3,-1,-16448,0,387,-4260,8082,-3,1,26428,0,390,-4257,8110,-3,1,-36436,0,418,-4261,8073,-5,1,26428,0,391,-4272,8058,-4,-2,16432,0,387,-4254,8084,-3,-1,36436,0,409,-4263,8053,-2,-1,-26448,0,431,-4270,8078,-4,2,06436,0,399,-4252,8084,-3,-2,16432,0,388,-4261,8055,-2,-1,06436,0,400,-4251,8058,-5,-3,26436,0,402,-4255,8076,-5,-2,-16440,0,389,-4262,8095,-6,0,16428,0,393,-4253,8084,-7,-5,-16440,0,400,-4258,8087,-3,-3,16432,0,405,-4225,8100,-3,0,-16436,0,390,-4267,8102,-5,-1,36436,0,389,-4274,8085,-2,3,-16444,0,403,-4253,8092,-5,-3,06436,0,384,-4278,8055,-3,-1,-16444,0,390,-4255,8083,-4,0,06428,0,406,-4264,8054,-4,-3,06436,0,404,-4252,8076,-3,-2,16436,0,393,-4263,8130,0,1,-26428,0,375,-4255,8065,-3,-2,06444,0,399,-4240,8099,-5,0,-16432,0,381,-4271,8080,-4,-1,-26440,0,409,-4269,8082,-5,-3,-16440,0,392,-4268,8065,-4,-2,06436,0,405,-4261,8053,-3,-1,16436,0,395,-4269,8068,-2,-3,16444,0,379,-4258,8069,-4,1,16432,0,387,-4258,8049,-5,-2,06436,0,378,-4262,8057,-2,0,-16436,0,410,-4254,8037,-2,-3,-26444,0,411,-4253,8061,-7,1,36428,0,395,-4243,8100,-6,-2,16432,0,389,-4263,8062,-3,-1,-26444,0,388,-4269,8085,-5,-4,-16448,0,413,-4266,8051,-4,0,26428,0,393,-4227,8076,-3,-2,-16440,0,389,-4254,8097,-4,-3,-26444,0,384,-4241,8091,-5,-3,-16440,0,398,-4237,8075,-3,1,16428,0,383,-4249,8078,-4,1,26436,0,393,-4278,8080,-3,-1,06432,0,396,-4250,8089,-3,-1,06436,0,419,-4271,8072,-5,-3,06436,0,378,-4279,8098,-4,0,16428,0,426,-4264,8058,-4,0,16428,0,393,-4263,8057,-1,-1,16436,0,397,-4242,8066,-4,3,06432,0,410,-4233,8098,-4,-3,26436,0,346,-4270,8090,-1,-1,06432,0,407,-4255,8083,-3,-3,26432,0,393,-4268,8056,-3,1,16428,0,401,-4285,8052,-4,-1,16436,0,399,-4254,8079,-5,1,16428,0,389,-4265,8083,-2,0,-26436,0,385,-4231,8085,-4,-1,06436,0,424,-4235,8051,-5,2,06428,0,414,-4266,8098,-4,0,-26432,0,380,-4253,8089,-5,1,06428,0,399,-4256,8052,-2,0,16428,0,407,-4238,8042,-2,0,-16432,0,387,-4273,8064,-3,0,16432,0,390,-4253,8128,-4,0,16432,0,382,-4251,8062,-2,-2,16436,0,408,-4273,8107,-4,-1,06432,0,407,-4280,8100,-3,0,-26436,0,389,-4260,8078,-4,0,16428,0,419,-4260,8089,-7,-2,-16440,0,408,-4260,8076,-6,2,06436,0,391,-4249,8088,-2,-2,-26440,0,371,-4252,8092,0,0,-16428,0,386,-4238,8036,-4,2,-16432,0,395,-4257,8097,-3,3,-16432,0,388,-4245,8090,-3,1,-16436,0,414,-4280,8084,-4,-2,-16440,0,403,-4270,8071,-2,-3,16432,0,406,-4251,8064,-1,0,-26436,0,402,-4257,8069,-3,0,-26436,0,416,-4250,8080,-3,-1,-26440,0,388,-4276,8101,-5,-2,-16448,0,409,-4266,8065,-4,-2,06432,0,389,-4266,8092,-4,1,06428,0,392,-4247,8073,-5,-1,-26440,0,390,-4258,8081,-3,1,26428,0,400,-4240,8039,0,2,16424,0,397,-4262,8062,-4,-2,-36440,0,390,-4266,8047,-3,-4,-16448,0,385,-4237,8064,-5,0,-26432,0,399,-4254,8096,-4,-2,-16440,0,400,-4273,8111,-3,0,26428,0,412,-4244,8056,0,2,16420,0,411,-4250,8082,-4,2,16428,0,390,-4248,8046,-3,1,06428,0,414,-4277,8088,-2,1,16436,0,433,-4269,8056,-4,0,06428,0,403,-4277,8057,-1,-2,-26440,0,379,-4254,8060,-4,0,06432,0,399,-4247,8069,-6,2,26428,0,392,-4265,8056,-4,-3,-16440,0,394,-4235,8062,-4,-2,16436,0,413,-4261,8094,-4,-2,-16444,0,391,-4260,8069,-3,-1,06436,0,389,-4266,8091,-5,0,16428,0,413,-4257,8073,-1,-3,06436,0,397,-4241,8090,-6,0,06428,0,418,-4276,8103,0,-3,06428,0,383,-4269,8059,-4,-1,16440,0,404,-4263,8093,-4,0,26424,0,396,-4273,8064,-4,0,16428,0,402,-4278,8079,-4,1,26428,0,392,-4258,8041,-2,0,06428,0,398,-4246,8070,-3,-2,06436,0,392,-4258,8060,-6,-2,06436,0,394,-4229,8047,-2,0,26428,0,404,-4252,8086,-4,0,06424,0,402,-4276,8060,-2,-1,06436,0,394,-4243,8047,-2,0,16428,0,408,-4278,8064,-4,-1,26444,0,406,-4265,8066,-2,2,26424,0,416,-4252,8109,-5,1,16428,0,398,-4248,8087,-5,1,06428,0,404,-4241,8078,-4,1,-26440,0,381,-4257,8054,-5,-2,16436,0,415,-4264,8056,-5,1,-16436,0,370,-4256,8079,-1,0,26428,0,407,-4245,8114,-4,-1,06432,0,396,-4258,8067,-3,-2,16432,0,397,-4287,8059,-3,0,36428,0,377,-4262,8077,-3,2,26432,0,416,-4282,8068,-4,-2,26436,0,391,-4259,8073,-2,-1,16436,0,394,-4262,8046,-3,-1,06440,0,404,-4256,8088,-5,2,16424,0,395,-4254,8055,-5,2,16428,0,430,-4263,8072,-4,1,-16436,0,397,-4251,8047,-4,1,16432,0,388,-4262,8063,-3,-2,26432,0,407,-4260,8089,-6,-4,16436,0,380,-4236,8098,-2,-3,06436,0,385,-4240,8045,-5,-1,06436,0,395,-4229,8077,-2,-4,-26444,0,401,-4251,8078,-2,1,-16444,0,401,-4247,8109,-1,-2,26440,0,417,-4257,8090,-5,-1,06432,0,394,-4242,8083,-4,0,-16432,0,418,-4260,8072,-3,0,-16436,0,388,-4246,8083,-4,-1,26436,0,406,-4278,8052,-3,-2,06436,0,404,-4235,8083,-4,-2,06436,0,409,-4253,8067,-3,1,06428,0,410,-4255,8095,-1,1,16428,0,393,-4243,8044,-2,1,-16436,0,419,-4249,8063,-3,-5,-16444,0,382,-4260,8082,-4,-1,16436,0,411,-4260,8069,-4,-1,16436,0,422,-4270,8101,-5,0,06432,0,453,-4266,8073,-3,1,16428,0,393,-4262,8090,-5,-2,16436,0,410,-4254,8012,-3,-2,-26440,0,368,-4276,8067,-5,-1,26436,0,381,-4267,8083,-5,0,-16432,0,424,-4249,8074,-2,0,16428,0,383,-4275,8053,-3,-3,-16448,0,388,-4249,8070,-4,-2,16440,0,406,-4281,8096,-1,-2,-26440,0,417,-4271,8073,-3,3,-26432,0,396,-4265,8042,-4,-1,-26440,0,390,-4266,8092,-2,3,16428,0,386,-4249,8065,-3,3,06428,0,368,-4269,8071,-3,0,16436,0,418,-4261,8082,-1,0,06428,0,394,-4254,8057,-5,0,-16436,0,385,-4263,8056,-1,-1,-16440,0,411,-4262,8069,-3,-2,-16448,0,397,-4273,8087,-5,-4,-26440,0,398,-4258,8064,-4,-1,16432,0,394,-4261,8089,-5,0,06428,0,367,-4243,8059,-4,-2,-16440,0,400,-4232,8064,-5,-1,06436,0,380,-4260,8058,-4,0,06428,0,386,-4258,8102,-2,-1,26440,0,370,-4269,8104,-3,-1,-16440,0,399,-4279,8042,-4,-3,-16440,0,390,-4246,8074,-3,0,06428,0,407,-4270,8067,-5,-2,16436,0,410,-4246,8066,-5,-4,06436,0,393,-4277,8060,-1,-1,36444,0,376,-4247,8073,-4,-3,-26448,0,394,-4260,8074,-3,-1,06436,0,376,-4242,8054,-3,0,16428,0,393,-4282,8072,-3,-2,06436,0,411,-4276,8085,-3,1,-26432,0,413,-4224,8064,-3,-2,-16440,0,385,-4281,8108,-2,-2,06444,0,397,-4277,8058,-3,-2,16432,0,401,-4268,8105,-1,-1,16436,0,411,-4257,8071,-3,-2,16436,0,410,-4247,8113,-3,-2,06436,0,396,-4244,8118,-3,-2,06432,0,403,-4271,8090,-4,-4,06432,0,407,-4245,8100,-5,-1,-36444,0,393,-4278,8062,-2,1,16436,0,403,-4222,8103,-4,-1,-16440,0,381,-4278,8065,-4,0,-16436,0,398,-4266,8093,-3,-1,-26444,0,390,-4288,8068,-2,-2,06436,0,394,-4249,8043,-4,0,06428,0,415,-4274,8052,-2,1,06436,0,413,-4279,8080,-2,-1,36432,0,385,-4256,8105,-3,0,16428,0,404,-4295,8073,-1,0,26428,0,394,-4263,8059,-3,-2,36432,0,396,-4238,8108,-5,-1,16436,0,405,-4266,8057,-2,1,-16432,0,369,-4253,8078,-4,0,-26440,0,413,-4268,8078,-4,1,06428,0,404,-4256,8058,-2,-1,16436,0,378,-4256,8073,-2,-2,-16440,0,396,-4264,8086,0,1,16424,0,393,-4263,8075,-1,-1,16436,0,407,-4269,8045,-4,-1,06432,0,404,-4246,8063,-5,-1,-26440,0,404,-4275,8045,-3,0,06424,0,406,-4250,8083,-4,-1,16432,0,380,-4252,8030,-1,0,-16432,0,392,-4269,8076,-3,1,16432,0,378,-4225,8092,-5,-1,-26440,0,398,-4279,8065,-5,-2,06436,0,407,-4253,8061,-3,-1,06436,0,407,-4234,8072,-4,-2,06436,0,386,-4271,8115,-2,-1,-16444,0,399,-4253,8087,-6,-2,16436,0,404,-4254,8091,-7,-2,-36448,0,384,-4267,8061,-5,0,36428,0,394,-4255,8103,-4,-2,06432,0,418,-4252,8104,-3,-3,16436,0,382,-4254,8070,-1,-3,-16440,0,390,-4256,8099,-3,0,-26436,0,365,-4258,8074,-7,-2,-36448,0,393,-4251,8074,-5,-4,16444,0,377,-4245,8093,-2,-2,06432,0,390,-4264,8049,-4,-2,-16440,0,383,-4264,8063,-3,-1,16432,0,398,-4254,8057,-3,0,06428,0,395,-4261,8073,-5,-2,16432,0,394,-4249,8080,-6,-2,06440,0,395,-4244,8083,-6,-3,16432,0,416,-4272,8085,-5,-2,06436,0,405,-4254,8081,-5,0,26428,0,403,-4247,8027,-3,1,-26432,0,403,-4257,8092,-4,0,06428,0,421,-4249,8104,-4,0,-26432,0,380,-4270,8086,-3,2,-16440,0,395,-4265,8058,-4,-3,-16440,0,402,-4253,8069,-1,1,16428,0,376,-4269,8073,-2,-1,16436,0,381,-4259,8070,-2,0,06428,0,398,-4253,8079,-4,1,-16436,0,407,-4246,8090,-4,-2,06432,0,420,-4255,8103,-4,2,16432,0,394,-4277,8082,-4,1,-16436,0,387,-4263,8060,-1,-1,-26440,0,387,-4266,8105,-4,0,-26432,0,410,-4246,8097,-3,0,16428,0,377,-4248,8098,-2,-2,16436,0,378,-4264,8066,-2,1,-16436,0,394,-4277,8046,-2,-2,-16448,0,389,-4284,8074,-3,-1,06444,0,396,-4257,8046,-4,-1,26432,0,404,-4248,8074,-4,1,16428,0,401,-4274,8097,-2,-3,36436,0,372,-4246,8079,-4,1,06428,0,388,-4262,8071,-3,0,06428,0,411,-4262,8067,-1,0,16436,0,413,-4250,8084,-2,-4,16440,0,377,-4252,8071,-1,0,06428,0,396,-4242,8060,-2,-1,06436,0,379,-4250,8055,-2,0,06428,0,377,-4259,8073,-4,2,-16436,0,416,-4260,8067,-5,0,16428,0,386,-4262,8083,-2,-3,06436,0,401,-4259,8086,-2,-4,26436,0,413,-4257,8079,-3,-2,06436,0,394,-4267,8062,-2,-1,-16440,0,406,-4259,8075,-2,-3,06432,0,410,-4274,8070,-4,-3,16436,0,383,-4289,8049,-3,-2,-26440,0,414,-4274,8080,-4,-4,06436,0,367,-4256,8037,-4,0,26428,0,391,-4245,8087,-3,3,16428,0,395,-4256,8064,-4,-1,06432,0,391,-4276,8118,-3,0,16428,0,416,-4277,8078,-5,-1,-26440,0,386,-4272,8100,-3,-1,06432,0,399,-4274,8085,-2,-1,-26440,0,418,-4242,8049,-3,-1,46436,0,414,-4268,8038,-6,0,-16436,0,417,-4276,8081,-3,0,26428,0,417,-4246,8086,-4,-1,-16444,0,389,-4251,8056,-3,-3,26436,0,398,-4273,8092,-4,-2,06436,0,374,-4250,8052,-4,-2,06436,0,404,-4248,8079,-3,-2,-26440,0,398,-4252,8072,-4,1,06428,0,389,-4255,8057,-2,-3,-26448,0,405,-4249,8081,-3,-2,16432,0,421,-4255,8065,-3,0,26428,0,389,-4265,8096,-2,-2,-16440,0,396,-4269,8104,-3,-4,16436,0,410,-4261,8088,-6,-2,-16444,0,398,-4261,8071,-4,-4,26436,0,414,-4272,8083,-6,-1,-26448,0,407,-4247,8085,-2,-1,06432,0,415,-4295,8080,-4,-3,-16440,0,388,-4238,8054,-6,0,26428,0,374,-4247,8071,-3,0,-16432,0,394,-4251,8090,-2,0,06428,0,379,-4270,8072,-7,-2,16436,0,380,-4264,8041,-4,-1,06440,0,381,-4283,8052,-4,-1,26436,0,409,-4260,8074,-3,-2,26432,0,412,-4272,8032,-2,2,-26432,0,415,-4249,8135,-4,2,-26436,0,399,-4266,8056,-2,1,16432,0,375,-4268,8056,-4,-1,06432,0,402,-4261,8067,-3,0,26436,0,390,-4260,8070,-4,-1,-46444,0,376,-4271,8044,-1,-2,-16440,0,384,-4254,8107,-4,-3,-16440,0,377,-4278,8082,-5,-1,06436,0,434,-4259,8074,-5,-4,16436,0,398,-4267,8099,-2,-1,16436,0,393,-4264,8082,-4,-4,-26440,0,401,-4261,8071,-4,-3,16432,0,378,-4256,8076,-4,-1,06432,0,416,-4244,8067,-3,-2,06432,0,403,-4240,8075,-3,-1,06436,0,389,-4269,8075,-5,-2,-16440,0,390,-4272,8082,-4,-2,-36440,0,407,-4257,8078,-5,-1,06432,0,395,-4254,8080,-4,-1,16432,0,392,-4284,8072,-1,-3,06436,0,395,-4266,8060,-6,1,16428,0,394,-4256,8057,-3,-1,06440,0,390,-4268,8069,-5,2,06428,0,423,-4245,8053,-1,0,-16436,0,389,-4271,8075,-2,-2,16440,0,364,-4271,8092,-3,0,26428,0,398,-4252,8062,-4,1,26428,0,384,-4253,8098,-3,-1,46432,0,408,-4241,8081,-2,-2,06440,0,381,-4261,8092,-2,-1,26440,0,404,-4255,8069,-2,-4,06436,0,394,-4261,8085,-3,-1,-16444,0,413,-4262,8090,-4,-1,16436,0,409,-4286,8120,-2,-2,26436,0,419,-4249,8092,-5,-3,06436,0,390,-4243,8100,-5,0,16432,0,424,-4253,8100,-5,0,-16436,0,391,-4263,8068,-1,-2,26436,0,396,-4238,8057,-5,1,06428,0,401,-4249,8121,-4,0,16428,0,399,-4250,8098,-2,-1,06436,0,400,-4256,8075,-3,-2,-26448,0,400,-4255,8084,-3,-2,-16444,0,383,-4259,8088,-5,-1,16436,0,388,-4280,8073,-5,0,16428,0,387,-4256,8063,-1,-1,-16440,0,396,-4242,8052,-2,-1,-26444,0,406,-4250,8045,-2,-2,-16440,0,400,-4257,8098,-3,-1,16436,0,391,-4254,8096,-4,0,26436,0,405,-4251,8079,-4,-1,16432,0,410,-4252,8087,-3,-2,-26440,0,401,-4269,8039,-4,-2,16432,0,383,-4272,8131,-4,2,-16436,0,385,-4261,8065,-5,-2,-16444,0,419,-4256,8054,-7,-1,-16444,0,410,-4264,8051,-5,3,-26432,0,388,-4253,8068,-3,2,16428,0,401,-4251,8061,-5,0,-16432,0,415,-4265,8066,-4,-1,-16440,0,391,-4270,8055,-3,-3,26432,0,383,-4258,8085,-1,-1,-16440,0,398,-4260,8083,-4,0,16428,0,396,-4260,8071,-3,0,26428,0,377,-4287,8107,-5,0,16428,0,392,-4246,8079,-1,1,16428,0,393,-4251,8054,-6,-2,26432,0,397,-4248,8069,-3,-2,16436,0,396,-4269,8026,-1,-1,26436,0,398,-4257,8055,-3,0,16432,0,403,-4234,8056,-5,-1,16436,0,402,-4271,8059,-4,0,06428,0,364,-4263,8070,-3,2,-26432,0,386,-4294,8063,-2,-2,-16440,0,395,-4264,8064,-4,0,-46432,0,400,-4259,8093,-6,0,16428,0,404,-4240,8082,-4,0,06432,0,391,-4268,8051,-3,-3,-16440,0,390,-4299,8131,-7,-1,06436,0,419,-4257,8064,-2,-3,06436,0,409,-4235,8077,-3,-3,06448,0,385,-4280,8080,-5,-3,06436,0,396,-4255,8075,-3,-3,-16444,0,396,-4264,8060,-5,-3,16436,0,398,-4265,8049,-2,-2,16440,0,393,-4249,8075,-3,-1,-16440,0,399,-4263,8087,-4,-1,-16452,0,405,-4251,8086,-4,-4,-26440,0,404,-4261,8064,-3,-4,06432,0,388,-4253,8067,-2,-1,-36440,0,400,-4252,8071,-4,1,06428,0,408,-4249,8049,-3,-3,-36440,0,380,-4239,8086,-3,0,06428,0,394,-4293,8071,-4,-1,26440,0,408,-4247,8093,-4,-1,-26448,0,400,-4246,8133,-1,2,-16432,0,379,-4259,8062,-5,-1,-16440,0,413,-4279,8060,-2,2,-16436,0,383,-4265,8089,-3,-1,16432,0,418,-4259,8054,-2,1,06428,0,375,-4272,8083,-1,-2,26444,0,386,-4254,8048,-3,-3,16436,0,392,-4248,8042,-4,2,06428,0,398,-4238,8042,-4,0,-26436,0,407,-4254,8085,-2,-1,16436,0,413,-4221,8062,-4,2,16428,0,385,-4241,8080,-4,0,06428,0,410,-4263,8051,-4,-4,16440,0,373,-4267,8078,-3,-1,-16440,0,389,-4263,8085,-1,-1,16436,0,377,-4235,8071,-5,-1,06436,0,398,-4259,8049,-4,0,-16432,0,407,-4234,8087,-5,0,16428,0,396,-4265,8071,-4,2,06428,0,398,-4266,8056,-1,0,-16436,0,386,-4254,8099,-4,-1,-16444,0,371,-4264,8095,-4,-1,26436,0,382,-4278,8055,-3,-1,06432,0,399,-4257,8103,-2,-1,26440,0,384,-4262,8080,-4,-3,06436,0,391,-4287,8094,-4,-3,16436,0,389,-4255,8083,-3,-2,16436,0,404,-4261,8073,-3,-2,06436,0,385,-4262,8073,-3,-2,-26444,0,407,-4259,8058,-4,-3,06444,0,401,-4269,8046,-5,-3,06432,0,402,-4270,8091,-4,2,16428,0,383,-4245,8064,-4,-3,-16440,0,391,-4261,8044,-4,-1,-16448,0,411,-4280,8102,-1,0,06428,0,413,-4224,8121,-6,-3,06436,0,402,-4265,8046,-2,-3,-16448,0,397,-4238,8082,-2,-3,06432,0,398,-4250,8056,-3,-2,-16440,0,373,-4250,8065,-6,0,-26432,0,382,-4247,8066,-5,-3,06440,0,389,-4271,8068,-4,-2,-16440,0,392,-4255,8088,-4,-3,-16440,0,401,-4257,8071,-4,-1,-16444,0,396,-4247,8103,-4,-1,-16440,0,413,-4242,8034,-3,0,06428,0,394,-4220,8069,-5,-1,-16440,0,403,-4244,8105,-2,-2,-16440,0,386,-4258,8097,-3,-2,06436,0,403,-4265,8124,-3,-1,16436,0,398,-4261,8093,-4,-2,-26440,0,411,-4266,8053,-5,0,16428,0,382,-4254,8090,-3,-1,16432,0,413,-4255,8042,-3,-3,16432,0,413,-4295,8101,-3,-2,06440,0,390,-4247,8062,-4,1,16428,0,393,-4235,8068,-3,-1,06436,0,399,-4249,8087,-3,0,16432,0,378,-4261,8099,-4,-6,-16440,0,403,-4257,8058,-5,-2,06436,0,389,-4258,8064,-5,-2,06436,0,406,-4270,8075,-2,1,-16440,0,364,-4282,8077,-2,0,16428,0,390,-4247,8051,-3,0,06428,0,403,-4263,8049,-5,0,16428,0,400,-4247,8058,-6,-1,06436,0,397,-4267,8075,-4,-1,-26440,0,387,-4243,8055,-3,-1,16436,0,404,-4263,8059,-3,-1,-16444,0,397,-4238,8041,-6,1,-16436,0,379,-4262,8072,-3,-1,-1